Folder: mestrado_ifusp/inputs/edxCalibration/edx_raw/2010/junho (part 8)

File: GaAs 31503.20100525222207.csv
"Sample    : GaAs 31503",
"Operator  : luisf",
"Comment  : cubatao-g-policarbonato",
"Group     : kerr2007ag180cal_lt",
"Date       : 2010-05-25 22:18:02",
"",
"Mesurement Condition",
"------------------------------------------------------------------------------------",
"Instrument : 700HS2   Atmosphere : Vac.   Collimator : 10(mm)   Spin : No",
"------------------------------------------------------------------------------------",
"Analyte               TG kV   uA      FI Acq.(keV)  Anal.(keV)  Time(sec)     DT(%)",
"------------------------------------------------------------------------------------",
"Na                    Rh 50  152-Auto Al  0 - 20    0.8 - 1.2   Live -  179   15",
"",
"<Profile>",
"Channel_info_start",
"Channel : Na",
"Points : 2048",
"Range : 0.000000 - 20.48",
"Step : 0.010000",
"Channel_info_end",
"0",
"0",
"0",
"0",
"1",
"24",
"15",
"28",
"15",
"10",
"18",
"15",
"14",
"18",
"20",
"84",
"195",
"149",
"605",
"711",
"187",
"36",
"21",
"15",
"24",
"22",
"11",
"14",
"53",
"55",
"13",
"13",
"8",
"10",
"13",
"14",
"10",
"10",
"4",
"12",
"11",
"3",
"9",
"10",
"4",
"10",
"11",
"12",
"14",
"4",
"13",
"71",
"439",
"545",
"153",
"23",
"47",
"77",
"56",
"27",
"13",
"25",
"30",
"29",
"35",
"34",
"43",
"40",
"28",
"33",
"14",
"21",
"18",
"29",
"21",
"30",
"29",
"30",
"37",
"37",
"34",
"36",
"37",
"31",
"42",
"48",
"49",
"51",
"51",
"65",
"64",
"83",
"54",
"46",
"48",
"65",
"52",
"75",
"49",
"68",
"62",
"62",
"63",
"69",
"75",
"60",
"76",
"100",
"83",
"55",
"58",
"63",
"75",
"79",
"87",
"84",
"87",
"75",
"63",
"88",
"76",
"84",
"77",
"123",
"116",
"125",
"105",
"80",
"114",
"320",
"1518",
"4804",
"6498",
"4285",
"1327",
"237",
"85",
"101",
"62",
"74",
"90",
"104",
"92",
"119",
"199",
"503",
"928",
"1353",
"3663",
"11051",
"17991",
"16907",
"7552",
"1900",
"307",
"91",
"71",
"81",
"64",
"78",
"80",
"66",
"96",
"124",
"198",
"636",
"1678",
"2759",
"2474",
"1353",
"434",
"165",
"68",
"42",
"46",
"50",
"46",
"41",
"40",
"35",
"58",
"54",
"48",
"55",
"52",
"54",
"41",
"45",
"46",
"52",
"33",
"36",
"46",
"41",
"37",
"39",
"40",
"40",
"45",
"47",
"41",
"51",
"40",
"38",
"39",
"48",
"46",
"41",
"40",
"49",
"34",
"47",
"31",
"28",
"35",
"50",
"37",
"30",
"38",
"43",
"41",
"35",
"39",
"33",
"42",
"36",
"41",
"54",
"29",
"35",
"26",
"47",
"36",
"35",
"29",
"40",
"30",
"31",
"24",
"39",
"28",
"37",
"24",
"34",
"41",
"29",
"38",
"29",
"31",
"27",
"33",
"30",
"28",
"39",
"27",
"46",
"45",
"33",
"43",
"37",
"52",
"35",
"31",
"38",
"50",
"43",
"52",
"52",
"86",
"98",
"127",
"145",
"191",
"202",
"230",
"217",
"180",
"167",
"130",
"128",
"91",
"81",
"55",
"73",
"69",
"93",
"116",
"101",
"86",
"63",
"41",
"31",
"35",
"16935",
"Channel_info_start",
"Channel : Mg",
"Points : 0",
"Range : 0.000000 - 0.000000",
"Step : 0.010000",
"Channel_info_end",
"Channel_info_start",
"Channel : Al",
"Points : 0",
"Range : 0.000000 - 0.000000",
"Step : 0.010000",
"Channel_info_end",
"Channel_info_start",
"Channel : Si",
"Points : 0",
"Range : 0.000000 - 0.000000",
"Step : 0.010000",
"Channel_info_end",
"Channel_info_start",
"Channel : P ",
"Points : 0",
"Range : 0.000000 - 0.000000",
"Step : 0.010000",
"Channel_info_end",
"Channel_info_start",
"Channel : S ",
"Points : 0",
"Range : 0.000000 - 0.000000",
"Step : 0.010000",
"Channel_info_end",
"Channel_info_start",
"Channel : Cl",
"Points : 0",
"Range : 0.000000 - 0.000000",
"Step : 0.010000",
"Channel_info_end",
"Channel_info_start",
"Channel : K ",
"Points : 0",
"Range : 0.000000 - 0.000000",
"Step : 0.010000",
"Channel_info_end",
"Channel_info_start",
"Channel : Ca",
"Points : 0",
"Range : 0.000000 - 0.000000",
"Step : 0.010000",
"Channel_info_end",
"Channel_info_start",
"Channel : Ti",
"Points : 0",
"Range : 0.000000 - 0.000000",
"Step : 0.010000",
"Channel_info_end",
"Channel_info_start",
"Channel : V ",
"Points : 0",
"Range : 0.000000 - 0.000000",
"Step : 0.010000",
"Channel_info_end",
"Channel_info_start",
"Channel : Cr",
"Points : 0",
"Range : 0.000000 - 0.000000",
"Step : 0.010000",
"Channel_info_end",
"Channel_info_start",
"Channel : Mn",
"Points : 0",
"Range : 0.000000 - 0.000000",
"Step : 0.010000",
"Channel_info_end",
"Channel_info_start",
"Channel : Fe",
"Points : 0",
"Range : 0.000000 - 0.000000",
"Step : 0.010000",
"Channel_info_end",
"Channel_info_start",
"Channel : Cu",
"Points : 0",
"Range : 0.000000 - 0.000000",
"Step : 0.010000",
"Channel_info_end",
"Channel_info_start",
"Channel : Zn",
"Points : 0",
"Range : 0.000000 - 0.000000",
"Step : 0.010000",
"Channel_info_end",
"Channel_info_start",
"Channel : Sr",
"Points : 0",
"Range : 0.000000 - 0.000000",
"Step : 0.010000",
"Channel_info_end",
"Channel_info_start",
"Channel : Pb",
"Points : 0",
"Range : 0.000000 - 0.000000",
"Step : 0.010000",
"Channel_info_end",
"",
"Qualitative Result",
"--------------------------------------------------------------------------------",
"Element :  Ga, As, Ir, Ca, Rh",
"",
"Peak List",
"--------------------------------------------------------------------------------",
"Channel               Line        keV     Net Int.(cps/uA)",
"--------------------------------------------------------------------------------",
"Na                    GaLa         1.11     0.066",
"                      AsLa         1.30     0.346",
"                      IrMa         2.01     0.018",
"                      CaKa         3.68     0.309",
"                      CaKb         4.02     0.037",
"                      GaKa         9.24     2.926",
"                      IrLa         9.24     1.336",
"                      GaKb        10.20     0.439",
"                      AsKa        10.52    13.125",
"                      AsKb        11.72     1.930",
"                      RhKaC       19.18     0.132",
"                      RhKa        20.05     0.065",
"--------------------------------------------------------------------------------",
"",
"Quantitative Result",
"--------------------------------------------------------------------------------",
"Analyte               Result             Std.Dev. Proc.-Calc. Line Intensity(cps/uA)",
"--------------------------------------------------------------------------------",
"====[No. 1 Layer]====< Layer1               >===============================",
"Layer1                   0.000 ug/cm2    -------- Flux       -------- --------",

File: GaP 31502.20100525203214.csv
"Sample    : GaP 31502",
"Operator  : thiago",
"Comment  : cubatao-g-policarbonato",
"Group     : kerr2007ag180cal_lt",
"Date       : 2010-05-25 20:28:11",
"",
"Mesurement Condition",
"------------------------------------------------------------------------------------",
"Instrument : 700HS2   Atmosphere : Vac.   Collimator : 10(mm)   Spin : No",
"------------------------------------------------------------------------------------",
"Analyte               TG kV   uA      FI Acq.(keV)  Anal.(keV)  Time(sec)     DT(%)",
"------------------------------------------------------------------------------------",
"Na                    Rh 50  187-Auto Al  0 - 20    0.8 - 1.2   Live -  179   15",
"",
"<Profile>",
"Channel_info_start",
"Channel : Na",
"Points : 2048",
"Range : 0.000000 - 20.48",
"Step : 0.010000",
"Channel_info_end",
"0",
"0",
"0",
"0",
"0",
"27",
"19",
"20",
"15",
"13",
"13",
"21",
"16",
"33",
"58",
"235",
"586",
"254",
"44",
"22",
"17",
"17",
"15",
"13",
"36",
"30",
"37",
"68",
"399",
"725",
"164",
"56",
"12",
"9",
"14",
"12",
"7",
"10",
"13",
"11",
"19",
"17",
"12",
"22",
"12",
"13",
"8",
"21",
"14",
"19",
"26",
"98",
"467",
"706",
"198",
"53",
"54",
"100",
"78",
"26",
"24",
"23",
"33",
"46",
"45",
"49",
"40",
"39",
"27",
"38",
"38",
"38",
"32",
"41",
"33",
"38",
"33",
"36",
"27",
"47",
"34",
"49",
"48",
"49",
"42",
"62",
"50",
"53",
"58",
"58",
"74",
"90",
"86",
"78",
"74",
"52",
"72",
"74",
"78",
"86",
"81",
"78",
"62",
"82",
"85",
"71",
"131",
"125",
"97",
"96",
"74",
"72",
"75",
"127",
"110",
"127",
"105",
"100",
"86",
"63",
"91",
"101",
"100",
"143",
"146",
"119",
"113",
"137",
"233",
"1168",
"6608",
"20640",
"27113",
"17428",
"4957",
"851",
"170",
"90",
"114",
"90",
"113",
"142",
"149",
"229",
"601",
"1879",
"3393",
"3515",
"1816",
"494",
"124",
"74",
"65",
"69",
"69",
"70",
"74",
"58",
"61",
"60",
"64",
"56",
"57",
"74",
"72",
"58",
"65",
"60",
"68",
"59",
"57",
"62",
"62",
"54",
"47",
"58",
"66",
"60",
"62",
"70",
"50",
"46",
"71",
"62",
"53",
"57",
"53",
"58",
"58",
"46",
"49",
"53",
"51",
"50",
"56",
"54",
"45",
"61",
"50",
"48",
"48",
"49",
"52",
"59",
"48",
"45",
"39",
"42",
"56",
"38",
"39",
"49",
"61",
"56",
"41",
"44",
"50",
"51",
"41",
"35",
"38",
"47",
"36",
"42",
"58",
"49",
"41",
"48",
"38",
"42",
"35",
"35",
"53",
"47",
"39",
"44",
"36",
"38",
"37",
"39",
"28",
"30",
"41",
"36",
"30",
"30",
"47",
"39",
"53",
"32",
"46",
"39",
"40",
"39",
"41",
"45",
"53",
"42",
"46",
"48",
"45",
"46",
"74",
"97",
"90",
"80",
"72",
"94",
"115",
"118",
"134",
"179",
"243",
"264",
"254",
"259",
"240",
"219",
"163",
"125",
"111",
"73",
"60",
"63",
"62",
"94",
"122",
"145",
"154",
"82",
"45",
"42",
"41",
"19272",
"Channel_info_start",
"Channel : Mg",
"Points : 0",
"Range : 0.000000 - 0.000000",
"Step : 0.010000",
"Channel_info_end",
"Channel_info_start",
"Channel : Al",
"Points : 0",
"Range : 0.000000 - 0.000000",
"Step : 0.010000",
"Channel_info_end",
"Channel_info_start",
"Channel : Si",
"Points : 0",
"Range : 0.000000 - 0.000000",
"Step : 0.010000",
"Channel_info_end",
"Channel_info_start",
"Channel : P ",
"Points : 0",
"Range : 0.000000 - 0.000000",
"Step : 0.010000",
"Channel_info_end",
"Channel_info_start",
"Channel : S ",
"Points : 0",
"Range : 0.000000 - 0.000000",
"Step : 0.010000",
"Channel_info_end",
"Channel_info_start",
"Channel : Cl",
"Points : 0",
"Range : 0.000000 - 0.000000",
"Step : 0.010000",
"Channel_info_end",
"Channel_info_start",
"Channel : K ",
"Points : 0",
"Range : 0.000000 - 0.000000",
"Step : 0.010000",
"Channel_info_end",
"Channel_info_start",
"Channel : Ca",
"Points : 0",
"Range : 0.000000 - 0.000000",
"Step : 0.010000",
"Channel_info_end",
"Channel_info_start",
"Channel : Ti",
"Points : 0",
"Range : 0.000000 - 0.000000",
"Step : 0.010000",
"Channel_info_end",
"Channel_info_start",
"Channel : V ",
"Points : 0",
"Range : 0.000000 - 0.000000",
"Step : 0.010000",
"Channel_info_end",
"Channel_info_start",
"Channel : Cr",
"Points : 0",
"Range : 0.000000 - 0.000000",
"Step : 0.010000",
"Channel_info_end",
"Channel_info_start",
"Channel : Mn",
"Points : 0",
"Range : 0.000000 - 0.000000",
"Step : 0.010000",
"Channel_info_end",
"Channel_info_start",
"Channel : Fe",
"Points : 0",
"Range : 0.000000 - 0.000000",
"Step : 0.010000",
"Channel_info_end",
"Channel_info_start",
"Channel : Cu",
"Points : 0",
"Range : 0.000000 - 0.000000",
"Step : 0.010000",
"Channel_info_end",
"Channel_info_start",
"Channel : Zn",
"Points : 0",
"Range : 0.000000 - 0.000000",
"Step : 0.010000",
"Channel_info_end",
"Channel_info_start",
"Channel : Sr",
"Points : 0",
"Range : 0.000000 - 0.000000",
"Step : 0.010000",
"Channel_info_end",
"Channel_info_start",
"Channel : Pb",
"Points : 0",
"Range : 0.000000 - 0.000000",
"Step : 0.010000",
"Channel_info_end",
"",
"Qualitative Result",
"--------------------------------------------------------------------------------",
"Element :  Ga, P , Ca, Ru",
"",
"Peak List",
"--------------------------------------------------------------------------------",
"Channel               Line        keV     Net Int.(cps/uA)",
"--------------------------------------------------------------------------------",
"Na                    GaLa         1.11     0.192",
"                      P Ka         2.01     0.259",
"                      CaKa         3.68     0.304",
"                      CaKb         4.02     0.040",
"                      GaKaESC      7.43     0.031",
"                      GaKa         9.24    14.575",
"                      GaKb        10.25     2.094",
"                      RuKa        19.20     0.134",
"                      Ga  SUM     19.44     0.072",
"--------------------------------------------------------------------------------",
"",
"Quantitative Result",
"--------------------------------------------------------------------------------",
"Analyte               Result             Std.Dev. Proc.-Calc. Line Intensity(cps/uA)",
"--------------------------------------------------------------------------------",
"====[No. 1 Layer]====< Layer1               >===============================",
"Layer1                   0.000 ug/cm2    -------- Flux       -------- --------",

File: Ge 31504.20100525222610.csv
"Sample    : Ge 31504",
"Operator  : luisf",
"Comment  : cubatao-g-policarbonato",
"Group     : kerr2007ag180cal_lt",
"Date       : 2010-05-25 22:22:05",
"",
"Mesurement Condition",
"------------------------------------------------------------------------------------",
"Instrument : 700HS2   Atmosphere : Vac.   Collimator : 10(mm)   Spin : No",
"------------------------------------------------------------------------------------",
"Analyte               TG kV   uA      FI Acq.(keV)  Anal.(keV)  Time(sec)     DT(%)",
"------------------------------------------------------------------------------------",
"Na                    Rh 50  152-Auto Al  0 - 20    0.8 - 1.2   Live -  179   15",
"",
"<Profile>",
"Channel_info_start",
"Channel : Na",
"Points : 2048",
"Range : 0.000000 - 20.48",
"Step : 0.010000",
"Channel_info_end",
"0",
"0",
"0",
"0",
"0",
"25",
"12",
"14",
"20",
"22",
"9",
"13",
"21",
"11",
"29",
"67",
"169",
"857",
"484",
"86",
"22",
"14",
"18",
"16",
"8",
"15",
"17",
"15",
"43",
"49",
"11",
"16",
"9",
"11",
"4",
"9",
"5",
"10",
"9",
"10",
"14",
"17",
"11",
"10",
"5",
"9",
"15",
"14",
"13",
"12",
"17",
"78",
"403",
"574",
"121",
"33",
"35",
"79",
"78",
"28",
"21",
"25",
"27",
"34",
"35",
"41",
"40",
"35",
"28",
"26",
"34",
"26",
"35",
"21",
"24",
"29",
"33",
"36",
"24",
"35",
"30",
"26",
"29",
"34",
"53",
"45",
"50",
"43",
"66",
"55",
"48",
"76",
"58",
"75",
"58",
"71",
"75",
"65",
"59",
"65",
"50",
"61",
"69",
"65",
"63",
"75",
"64",
"67",
"71",
"61",
"54",
"59",
"74",
"81",
"94",
"114",
"122",
"102",
"72",
"72",
"65",
"96",
"89",
"122",
"103",
"74",
"81",
"72",
"78",
"75",
"66",
"83",
"88",
"83",
"105",
"111",
"148",
"191",
"1238",
"6894",
"18852",
"26337",
"17532",
"6227",
"1053",
"191",
"114",
"94",
"72",
"88",
"107",
"107",
"112",
"188",
"438",
"1494",
"3019",
"3639",
"2137",
"848",
"220",
"90",
"43",
"35",
"47",
"56",
"55",
"59",
"39",
"40",
"42",
"60",
"63",
"35",
"29",
"40",
"56",
"43",
"38",
"36",
"41",
"56",
"50",
"40",
"48",
"40",
"37",
"58",
"41",
"33",
"46",
"29",
"39",
"52",
"51",
"31",
"46",
"31",
"46",
"29",
"50",
"36",
"33",
"38",
"49",
"33",
"41",
"50",
"40",
"45",
"27",
"34",
"46",
"42",
"31",
"42",
"34",
"39",
"42",
"36",
"36",
"35",
"42",
"38",
"35",
"30",
"27",
"34",
"37",
"29",
"39",
"30",
"36",
"36",
"40",
"34",
"33",
"34",
"26",
"39",
"35",
"33",
"26",
"30",
"35",
"29",
"40",
"37",
"37",
"30",
"29",
"23",
"45",
"33",
"27",
"31",
"40",
"33",
"33",
"42",
"43",
"41",
"39",
"45",
"52",
"53",
"45",
"68",
"86",
"103",
"111",
"148",
"203",
"198",
"183",
"223",
"181",
"138",
"109",
"125",
"99",
"76",
"89",
"76",
"87",
"100",
"113",
"122",
"96",
"80",
"42",
"33",
"31",
"15901",
"Channel_info_start",
"Channel : Mg",
"Points : 0",
"Range : 0.000000 - 0.000000",
"Step : 0.010000",
"Channel_info_end",
"Channel_info_start",
"Channel : Al",
"Points : 0",
"Range : 0.000000 - 0.000000",
"Step : 0.010000",
"Channel_info_end",
"Channel_info_start",
"Channel : Si",
"Points : 0",
"Range : 0.000000 - 0.000000",
"Step : 0.010000",
"Channel_info_end",
"Channel_info_start",
"Channel : P ",
"Points : 0",
"Range : 0.000000 - 0.000000",
"Step : 0.010000",
"Channel_info_end",
"Channel_info_start",
"Channel : S ",
"Points : 0",
"Range : 0.000000 - 0.000000",
"Step : 0.010000",
"Channel_info_end",
"Channel_info_start",
"Channel : Cl",
"Points : 0",
"Range : 0.000000 - 0.000000",
"Step : 0.010000",
"Channel_info_end",
"Channel_info_start",
"Channel : K ",
"Points : 0",
"Range : 0.000000 - 0.000000",
"Step : 0.010000",
"Channel_info_end",
"Channel_info_start",
"Channel : Ca",
"Points : 0",
"Range : 0.000000 - 0.000000",
"Step : 0.010000",
"Channel_info_end",
"Channel_info_start",
"Channel : Ti",
"Points : 0",
"Range : 0.000000 - 0.000000",
"Step : 0.010000",
"Channel_info_end",
"Channel_info_start",
"Channel : V ",
"Points : 0",
"Range : 0.000000 - 0.000000",
"Step : 0.010000",
"Channel_info_end",
"Channel_info_start",
"Channel : Cr",
"Points : 0",
"Range : 0.000000 - 0.000000",
"Step : 0.010000",
"Channel_info_end",
"Channel_info_start",
"Channel : Mn",
"Points : 0",
"Range : 0.000000 - 0.000000",
"Step : 0.010000",
"Channel_info_end",
"Channel_info_start",
"Channel : Fe",
"Points : 0",
"Range : 0.000000 - 0.000000",
"Step : 0.010000",
"Channel_info_end",
"Channel_info_start",
"Channel : Cu",
"Points : 0",
"Range : 0.000000 - 0.000000",
"Step : 0.010000",
"Channel_info_end",
"Channel_info_start",
"Channel : Zn",
"Points : 0",
"Range : 0.000000 - 0.000000",
"Step : 0.010000",
"Channel_info_end",
"Channel_info_start",
"Channel : Sr",
"Points : 0",
"Range : 0.000000 - 0.000000",
"Step : 0.010000",
"Channel_info_end",
"Channel_info_start",
"Channel : Pb",
"Points : 0",
"Range : 0.000000 - 0.000000",
"Step : 0.010000",
"Channel_info_end",
"",
"Qualitative Result",
"--------------------------------------------------------------------------------",
"Element :  Na, Ge, P , Ca, Ru",
"",
"Peak List",
"--------------------------------------------------------------------------------",
"Channel               Line        keV     Net Int.(cps/uA)",
"--------------------------------------------------------------------------------",
"Na                    NaKa         1.00     0.011",
"                      GeLa         1.20     0.378",
"                      P Ka         1.99     0.020",
"                      CaKa         3.68     0.278",
"                      CaKb         4.01     0.036",
"                      GeKaESC      8.07     0.049",
"                      GeKa         9.87    17.363",
"                      GeKb        10.97     2.541",
"                      ----        19.04     0.112",
"                      RuKa        19.36     0.081",
"                      ----        20.01     0.048",
"--------------------------------------------------------------------------------",
"",
"Quantitative Result",
"--------------------------------------------------------------------------------",
"Analyte               Result             Std.Dev. Proc.-Calc. Line Intensity(cps/uA)",
"--------------------------------------------------------------------------------",
"====[No. 1 Layer]====< Layer1               >===============================",
"Layer1                  10.801 ug/cm2    -------- Flux       -------- --------",
"Na                      10.801 ug/cm2    -------- ********** -------- --------",

File: KCl 31494.20100525204724.csv
"Sample    : KCl 31494",
"Operator  : luisf",
"Comment  : cubatao-g-policarbonato",
"Group     : kerr2007ag180cal_lt",
"Date       : 2010-05-25 20:41:16",
"",
"Mesurement Condition",
"------------------------------------------------------------------------------------",
"Instrument : 700HS2   Atmosphere : Vac.   Collimator : 10(mm)   Spin : No",
"------------------------------------------------------------------------------------",
"Analyte               TG kV   uA      FI Acq.(keV)  Anal.(keV)  Time(sec)     DT(%)",
"------------------------------------------------------------------------------------",
"Na                    Rh 50  500-Auto Al  0 - 20    0.8 - 1.2   Live -  180   15",
"",
"<Profile>",
"Channel_info_start",
"Channel : Na",
"Points : 2048",
"Range : 0.000000 - 20.48",
"Step : 0.010000",
"Channel_info_end",
"0",
"0",
"0",
"0",
"1",
"39",
"39",
"27",
"38",
"38",
"37",
"59",
"156",
"183",
"45",
"45",
"45",
"55",
"43",
"56",
"53",
"76",
"228",
"219",
"70",
"65",
"93",
"89",
"149",
"208",
"109",
"129",
"149",
"203",
"215",
"276",
"1425",
"8174",
"7362",
"1432",
"997",
"740",
"225",
"200",
"230",
"430",
"4154",
"17886",
"13349",
"1923",
"776",
"2460",
"2726",
"2049",
"540",
"108",
"134",
"271",
"227",
"67",
"47",
"51",
"52",
"82",
"85",
"115",
"81",
"91",
"108",
"89",
"110",
"110",
"80",
"85",
"68",
"64",
"83",
"70",
"88",
"80",
"95",
"91",
"95",
"91",
"125",
"101",
"115",
"118",
"145",
"155",
"124",
"139",
"163",
"156",
"159",
"171",
"168",
"144",
"175",
"194",
"177",
"175",
"185",
"163",
"172",
"169",
"202",
"184",
"175",
"199",
"201",
"228",
"196",
"208",
"229",
"235",
"191",
"206",
"169",
"187",
"180",
"194",
"250",
"268",
"226",
"188",
"163",
"177",
"189",
"180",
"159",
"177",
"176",
"180",
"173",
"192",
"169",
"185",
"194",
"153",
"171",
"192",
"167",
"200",
"170",
"169",
"189",
"168",
"159",
"190",
"169",
"175",
"177",
"168",
"156",
"176",
"172",
"169",
"165",
"159",
"165",
"157",
"164",
"130",
"151",
"139",
"146",
"169",
"132",
"147",
"143",
"175",
"158",
"184",
"135",
"155",
"146",
"164",
"154",
"179",
"181",
"136",
"134",
"178",
"154",
"173",
"147",
"160",
"134",
"154",
"103",
"153",
"136",
"131",
"134",
"128",
"116",
"148",
"127",
"132",
"140",
"123",
"117",
"135",
"147",
"129",
"115",
"130",
"120",
"111",
"120",
"117",
"136",
"123",
"144",
"108",
"142",
"128",
"131",
"122",
"123",
"129",
"131",
"124",
"123",
"98",
"89",
"116",
"118",
"111",
"109",
"125",
"110",
"109",
"119",
"106",
"99",
"85",
"108",
"118",
"110",
"113",
"115",
"123",
"105",
"96",
"101",
"97",
"121",
"95",
"108",
"108",
"108",
"115",
"110",
"122",
"117",
"107",
"130",
"141",
"92",
"135",
"131",
"165",
"141",
"143",
"177",
"179",
"240",
"293",
"383",
"484",
"718",
"701",
"716",
"722",
"621",
"523",
"437",
"316",
"237",
"212",
"158",
"189",
"170",
"260",
"336",
"337",
"267",
"196",
"143",
"101",
"108",
"50521",
"Channel_info_start",
"Channel : Mg",
"Points : 0",
"Range : 0.000000 - 0.000000",
"Step : 0.010000",
"Channel_info_end",
"Channel_info_start",
"Channel : Al",
"Points : 0",
"Range : 0.000000 - 0.000000",
"Step : 0.010000",
"Channel_info_end",
"Channel_info_start",
"Channel : Si",
"Points : 0",
"Range : 0.000000 - 0.000000",
"Step : 0.010000",
"Channel_info_end",
"Channel_info_start",
"Channel : P ",
"Points : 0",
"Range : 0.000000 - 0.000000",
"Step : 0.010000",
"Channel_info_end",
"Channel_info_start",
"Channel : S ",
"Points : 0",
"Range : 0.000000 - 0.000000",
"Step : 0.010000",
"Channel_info_end",
"Channel_info_start",
"Channel : Cl",
"Points : 0",
"Range : 0.000000 - 0.000000",
"Step : 0.010000",
"Channel_info_end",
"Channel_info_start",
"Channel : K ",
"Points : 0",
"Range : 0.000000 - 0.000000",
"Step : 0.010000",
"Channel_info_end",
"Channel_info_start",
"Channel : Ca",
"Points : 0",
"Range : 0.000000 - 0.000000",
"Step : 0.010000",
"Channel_info_end",
"Channel_info_start",
"Channel : Ti",
"Points : 0",
"Range : 0.000000 - 0.000000",
"Step : 0.010000",
"Channel_info_end",
"Channel_info_start",
"Channel : V ",
"Points : 0",
"Range : 0.000000 - 0.000000",
"Step : 0.010000",
"Channel_info_end",
"Channel_info_start",
"Channel : Cr",
"Points : 0",
"Range : 0.000000 - 0.000000",
"Step : 0.010000",
"Channel_info_end",
"Channel_info_start",
"Channel : Mn",
"Points : 0",
"Range : 0.000000 - 0.000000",
"Step : 0.010000",
"Channel_info_end",
"Channel_info_start",
"Channel : Fe",
"Points : 0",
"Range : 0.000000 - 0.000000",
"Step : 0.010000",
"Channel_info_end",
"Channel_info_start",
"Channel : Cu",
"Points : 0",
"Range : 0.000000 - 0.000000",
"Step : 0.010000",
"Channel_info_end",
"Channel_info_start",
"Channel : Zn",
"Points : 0",
"Range : 0.000000 - 0.000000",
"Step : 0.010000",
"Channel_info_end",
"Channel_info_start",
"Channel : Sr",
"Points : 0",
"Range : 0.000000 - 0.000000",
"Step : 0.010000",
"Channel_info_end",
"Channel_info_start",
"Channel : Pb",
"Points : 0",
"Range : 0.000000 - 0.000000",
"Step : 0.010000",
"Channel_info_end",
"",
"Qualitative Result",
"--------------------------------------------------------------------------------",
"Element :  P , Cl, K , Ca, Zn",
"",
"Peak List",
"--------------------------------------------------------------------------------",
"Channel               Line        keV     Net Int.(cps/uA)",
"--------------------------------------------------------------------------------",
"Na                    ----         0.87     0.020",
"                      ----         1.58     0.031",
"                      P Ka         1.99     0.017",
"                      ClKa         2.62     1.361",
"                      ClKb         2.82     0.122",
"                      K Ka         3.32     2.870",
"                      K Kb         3.60     0.403",
"                      CaKa         3.69     0.218",
"                      CaKb         4.02     0.031",
"                      ZnKa         8.64     0.020",
"                      ----        19.20     0.142",
"                      ----        19.47     0.053",
"--------------------------------------------------------------------------------",
"",
"Quantitative Result",
"--------------------------------------------------------------------------------",
"Analyte               Result             Std.Dev. Proc.-Calc. Line Intensity(cps/uA)",
"--------------------------------------------------------------------------------",
"====[No. 1 Layer]====< Layer1               >===============================",
"Layer1                   0.000 ug/cm2    -------- Flux       -------- --------",