Folder: mestrado_ifusp/inputs/edxCalibration/edx_raw/2010/junho (part 10)

File: MoO3 31507.20100626140433.csv
"Sample    : MoO3 31507",
"Operator  : thiago",
"Comment  : cubatao-g-policarbonato",
"Group     : kerr2007ag180cal_lt",
"Date       : 2010-06-26 14:00:31",
"",
"Mesurement Condition",
"------------------------------------------------------------------------------------",
"Instrument : 700HS2   Atmosphere : Vac.   Collimator : 10(mm)   Spin : No",
"------------------------------------------------------------------------------------",
"Analyte               TG kV   uA      FI Acq.(keV)  Anal.(keV)  Time(sec)     DT(%)",
"------------------------------------------------------------------------------------",
"Na                    Rh 50  210-Auto Al  0 - 20    0.8 - 1.2   Live -  179   14",
"",
"<Profile>",
"Channel_info_start",
"Channel : Na",
"Points : 2048",
"Range : 0.000000 - 20.48",
"Step : 0.010000",
"Channel_info_end",
"0",
"0",
"0",
"0",
"0",
"54",
"38",
"50",
"77",
"58",
"46",
"64",
"54",
"50",
"45",
"48",
"38",
"44",
"36",
"41",
"27",
"38",
"33",
"37",
"40",
"42",
"39",
"55",
"121",
"224",
"140",
"175",
"1012",
"2023",
"1359",
"846",
"316",
"129",
"81",
"34",
"70",
"55",
"26",
"17",
"25",
"28",
"20",
"32",
"24",
"30",
"34",
"107",
"537",
"795",
"248",
"58",
"66",
"127",
"97",
"38",
"29",
"36",
"38",
"47",
"43",
"56",
"53",
"43",
"48",
"50",
"38",
"57",
"57",
"46",
"41",
"55",
"56",
"37",
"46",
"60",
"48",
"53",
"46",
"50",
"57",
"66",
"84",
"88",
"71",
"87",
"82",
"93",
"84",
"60",
"58",
"68",
"94",
"80",
"87",
"103",
"91",
"76",
"95",
"99",
"86",
"96",
"88",
"97",
"96",
"95",
"75",
"87",
"95",
"74",
"90",
"121",
"112",
"96",
"83",
"89",
"91",
"88",
"112",
"143",
"136",
"99",
"102",
"89",
"86",
"90",
"90",
"90",
"95",
"84",
"91",
"71",
"91",
"94",
"90",
"103",
"93",
"88",
"75",
"91",
"86",
"108",
"84",
"75",
"85",
"79",
"87",
"82",
"77",
"85",
"73",
"90",
"76",
"79",
"99",
"95",
"76",
"88",
"71",
"80",
"86",
"79",
"66",
"76",
"83",
"84",
"79",
"80",
"85",
"84",
"70",
"79",
"79",
"76",
"70",
"84",
"61",
"58",
"71",
"69",
"89",
"75",
"75",
"74",
"57",
"71",
"69",
"59",
"64",
"72",
"61",
"64",
"64",
"62",
"62",
"73",
"65",
"73",
"56",
"73",
"61",
"61",
"48",
"68",
"61",
"45",
"60",
"58",
"66",
"52",
"73",
"54",
"69",
"66",
"45",
"64",
"74",
"55",
"54",
"65",
"67",
"69",
"72",
"53",
"52",
"53",
"59",
"54",
"65",
"69",
"57",
"59",
"64",
"84",
"87",
"74",
"95",
"103",
"110",
"147",
"319",
"976",
"2825",
"6339",
"10301",
"12394",
"10732",
"7239",
"3329",
"1024",
"252",
"123",
"85",
"65",
"67",
"47",
"68",
"56",
"57",
"74",
"64",
"82",
"80",
"103",
"116",
"142",
"186",
"249",
"278",
"332",
"336",
"372",
"490",
"747",
"1366",
"2039",
"2146",
"1622",
"1048",
"703",
"497",
"462",
"367",
"271",
"185",
"97",
"82",
"66",
"45",
"22614",
"Channel_info_start",
"Channel : Mg",
"Points : 0",
"Range : 0.000000 - 0.000000",
"Step : 0.010000",
"Channel_info_end",
"Channel_info_start",
"Channel : Al",
"Points : 0",
"Range : 0.000000 - 0.000000",
"Step : 0.010000",
"Channel_info_end",
"Channel_info_start",
"Channel : Si",
"Points : 0",
"Range : 0.000000 - 0.000000",
"Step : 0.010000",
"Channel_info_end",
"Channel_info_start",
"Channel : P ",
"Points : 0",
"Range : 0.000000 - 0.000000",
"Step : 0.010000",
"Channel_info_end",
"Channel_info_start",
"Channel : S ",
"Points : 0",
"Range : 0.000000 - 0.000000",
"Step : 0.010000",
"Channel_info_end",
"Channel_info_start",
"Channel : Cl",
"Points : 0",
"Range : 0.000000 - 0.000000",
"Step : 0.010000",
"Channel_info_end",
"Channel_info_start",
"Channel : K ",
"Points : 0",
"Range : 0.000000 - 0.000000",
"Step : 0.010000",
"Channel_info_end",
"Channel_info_start",
"Channel : Ca",
"Points : 0",
"Range : 0.000000 - 0.000000",
"Step : 0.010000",
"Channel_info_end",
"Channel_info_start",
"Channel : Ti",
"Points : 0",
"Range : 0.000000 - 0.000000",
"Step : 0.010000",
"Channel_info_end",
"Channel_info_start",
"Channel : V ",
"Points : 0",
"Range : 0.000000 - 0.000000",
"Step : 0.010000",
"Channel_info_end",
"Channel_info_start",
"Channel : Cr",
"Points : 0",
"Range : 0.000000 - 0.000000",
"Step : 0.010000",
"Channel_info_end",
"Channel_info_start",
"Channel : Mn",
"Points : 0",
"Range : 0.000000 - 0.000000",
"Step : 0.010000",
"Channel_info_end",
"Channel_info_start",
"Channel : Fe",
"Points : 0",
"Range : 0.000000 - 0.000000",
"Step : 0.010000",
"Channel_info_end",
"Channel_info_start",
"Channel : Cu",
"Points : 0",
"Range : 0.000000 - 0.000000",
"Step : 0.010000",
"Channel_info_end",
"Channel_info_start",
"Channel : Zn",
"Points : 0",
"Range : 0.000000 - 0.000000",
"Step : 0.010000",
"Channel_info_end",
"Channel_info_start",
"Channel : Sr",
"Points : 0",
"Range : 0.000000 - 0.000000",
"Step : 0.010000",
"Channel_info_end",
"Channel_info_start",
"Channel : Pb",
"Points : 0",
"Range : 0.000000 - 0.000000",
"Step : 0.010000",
"Channel_info_end",
"",
"Qualitative Result",
"--------------------------------------------------------------------------------",
"Element :  P , Mo, Ca",
"",
"Peak List",
"--------------------------------------------------------------------------------",
"Channel               Line        keV     Net Int.(cps/uA)",
"--------------------------------------------------------------------------------",
"Na                    ----         0.55     0.010",
"                      P Ka         2.01     0.058",
"                      MoLa         2.30     0.638",
"                      ----         2.42     0.333",
"                      CaKa         3.69     0.302",
"                      CaKb         4.00     0.039",
"                      MoKa        17.44     7.231",
"                      MoKb        19.60     1.141",
"                      ----        19.98     0.138",
"--------------------------------------------------------------------------------",
"",
"Quantitative Result",
"--------------------------------------------------------------------------------",
"Analyte               Result             Std.Dev. Proc.-Calc. Line Intensity(cps/uA)",
"--------------------------------------------------------------------------------",
"====[No. 1 Layer]====< Layer1               >===============================",
"Layer1                   0.000 ug/cm2    -------- Flux       -------- --------",

File: NaCl 15750.20100611004357.csv
"Sample    : NaCl 15750",
"Operator  : thiago",
"Comment  : cubatao-g-policarbonato",
"Group     : kerr2007ag180cal_lt",
"Date       : 2010-06-11 00:39:46",
"",
"Mesurement Condition",
"------------------------------------------------------------------------------------",
"Instrument : 700HS2   Atmosphere : Vac.   Collimator : 10(mm)   Spin : No",
"------------------------------------------------------------------------------------",
"Analyte               TG kV   uA      FI Acq.(keV)  Anal.(keV)  Time(sec)     DT(%)",
"------------------------------------------------------------------------------------",
"Na                    Rh 50  802-Auto Al  0 - 20    0.8 - 1.2   Live -  179   15",
"",
"<Profile>",
"Channel_info_start",
"Channel : Na",
"Points : 2048",
"Range : 0.000000 - 20.48",
"Step : 0.010000",
"Channel_info_end",
"0",
"0",
"0",
"0",
"0",
"49",
"47",
"59",
"49",
"46",
"41",
"67",
"211",
"239",
"150",
"295",
"89",
"58",
"48",
"57",
"48",
"46",
"46",
"41",
"49",
"64",
"58",
"76",
"131",
"247",
"137",
"179",
"223",
"308",
"305",
"419",
"2079",
"12012",
"10841",
"2023",
"1364",
"872",
"101",
"39",
"27",
"38",
"38",
"47",
"47",
"39",
"84",
"340",
"1275",
"1792",
"571",
"163",
"169",
"265",
"204",
"117",
"53",
"67",
"90",
"125",
"137",
"147",
"136",
"128",
"113",
"127",
"110",
"119",
"101",
"123",
"116",
"134",
"154",
"157",
"152",
"165",
"153",
"131",
"158",
"161",
"167",
"184",
"188",
"229",
"234",
"237",
"239",
"233",
"268",
"250",
"234",
"259",
"293",
"296",
"232",
"293",
"262",
"262",
"241",
"225",
"259",
"273",
"276",
"239",
"268",
"222",
"272",
"288",
"281",
"322",
"333",
"346",
"341",
"297",
"271",
"293",
"318",
"359",
"448",
"566",
"476",
"347",
"296",
"280",
"289",
"301",
"272",
"293",
"260",
"290",
"273",
"273",
"276",
"305",
"298",
"266",
"260",
"305",
"276",
"300",
"250",
"265",
"227",
"301",
"314",
"275",
"258",
"274",
"269",
"247",
"273",
"271",
"276",
"269",
"270",
"285",
"252",
"233",
"262",
"268",
"289",
"262",
"269",
"283",
"251",
"253",
"246",
"272",
"239",
"241",
"249",
"258",
"208",
"226",
"232",
"273",
"225",
"260",
"233",
"224",
"229",
"237",
"232",
"218",
"223",
"210",
"253",
"219",
"207",
"243",
"226",
"243",
"222",
"239",
"204",
"207",
"210",
"215",
"193",
"190",
"216",
"228",
"209",
"218",
"195",
"209",
"214",
"196",
"195",
"191",
"197",
"219",
"216",
"193",
"181",
"195",
"190",
"202",
"187",
"197",
"179",
"161",
"186",
"177",
"157",
"166",
"174",
"186",
"185",
"174",
"158",
"178",
"174",
"163",
"166",
"175",
"157",
"150",
"165",
"181",
"161",
"156",
"151",
"187",
"170",
"183",
"169",
"169",
"189",
"183",
"190",
"165",
"203",
"203",
"184",
"190",
"200",
"208",
"209",
"219",
"250",
"235",
"305",
"382",
"452",
"621",
"687",
"931",
"1127",
"1167",
"1284",
"1199",
"1064",
"843",
"681",
"506",
"380",
"325",
"253",
"269",
"299",
"382",
"472",
"465",
"412",
"320",
"227",
"178",
"179",
"83144",
"Channel_info_start",
"Channel : Mg",
"Points : 0",
"Range : 0.000000 - 0.000000",
"Step : 0.010000",
"Channel_info_end",
"Channel_info_start",
"Channel : Al",
"Points : 0",
"Range : 0.000000 - 0.000000",
"Step : 0.010000",
"Channel_info_end",
"Channel_info_start",
"Channel : Si",
"Points : 0",
"Range : 0.000000 - 0.000000",
"Step : 0.010000",
"Channel_info_end",
"Channel_info_start",
"Channel : P ",
"Points : 0",
"Range : 0.000000 - 0.000000",
"Step : 0.010000",
"Channel_info_end",
"Channel_info_start",
"Channel : S ",
"Points : 0",
"Range : 0.000000 - 0.000000",
"Step : 0.010000",
"Channel_info_end",
"Channel_info_start",
"Channel : Cl",
"Points : 0",
"Range : 0.000000 - 0.000000",
"Step : 0.010000",
"Channel_info_end",
"Channel_info_start",
"Channel : K ",
"Points : 0",
"Range : 0.000000 - 0.000000",
"Step : 0.010000",
"Channel_info_end",
"Channel_info_start",
"Channel : Ca",
"Points : 0",
"Range : 0.000000 - 0.000000",
"Step : 0.010000",
"Channel_info_end",
"Channel_info_start",
"Channel : Ti",
"Points : 0",
"Range : 0.000000 - 0.000000",
"Step : 0.010000",
"Channel_info_end",
"Channel_info_start",
"Channel : V ",
"Points : 0",
"Range : 0.000000 - 0.000000",
"Step : 0.010000",
"Channel_info_end",
"Channel_info_start",
"Channel : Cr",
"Points : 0",
"Range : 0.000000 - 0.000000",
"Step : 0.010000",
"Channel_info_end",
"Channel_info_start",
"Channel : Mn",
"Points : 0",
"Range : 0.000000 - 0.000000",
"Step : 0.010000",
"Channel_info_end",
"Channel_info_start",
"Channel : Fe",
"Points : 0",
"Range : 0.000000 - 0.000000",
"Step : 0.010000",
"Channel_info_end",
"Channel_info_start",
"Channel : Cu",
"Points : 0",
"Range : 0.000000 - 0.000000",
"Step : 0.010000",
"Channel_info_end",
"Channel_info_start",
"Channel : Zn",
"Points : 0",
"Range : 0.000000 - 0.000000",
"Step : 0.010000",
"Channel_info_end",
"Channel_info_start",
"Channel : Sr",
"Points : 0",
"Range : 0.000000 - 0.000000",
"Step : 0.010000",
"Channel_info_end",
"Channel_info_start",
"Channel : Pb",
"Points : 0",
"Range : 0.000000 - 0.000000",
"Step : 0.010000",
"Channel_info_end",
"",
"Qualitative Result",
"--------------------------------------------------------------------------------",
"Element :  Na, P , S , Cl, Ca, Ti, Ru",
"",
"Peak List",
"--------------------------------------------------------------------------------",
"Channel               Line        keV     Net Int.(cps/uA)",
"--------------------------------------------------------------------------------",
"Na                    ----         0.88     0.018",
"                      NaKa         1.05     0.016",
"                      P Ka         2.00     0.013",
"                      S Ka         2.30     0.015",
"                      ClKa         2.62     1.252",
"                      ClKb         2.84     0.106",
"                      CaKa         3.68     0.173",
"                      CaKb         4.02     0.021",
"                      TiKa         4.56     0.007",
"                      ----         8.62     0.035",
"                      RuKa        19.20     0.139",
"                      ----        19.44     0.070",
"                      ----        20.04     0.042",
"--------------------------------------------------------------------------------",
"",
"Quantitative Result",
"--------------------------------------------------------------------------------",
"Analyte               Result             Std.Dev. Proc.-Calc. Line Intensity(cps/uA)",
"--------------------------------------------------------------------------------",
"====[No. 1 Layer]====< Layer1               >===============================",
"Layer1                  16.054 ug/cm2    -------- Flux       -------- --------",
"Na                      16.054 ug/cm2    -------- ********** -------- --------",

File: NdF3 31515.20100526005120.csv
"Sample    : NdF3 31515",
"Operator  : luisf",
"Comment  : cubatao-g-policarbonato",
"Group     : kerr2007ag180cal_lt",
"Date       : 2010-05-26 00:47:20",
"",
"Mesurement Condition",
"------------------------------------------------------------------------------------",
"Instrument : 700HS2   Atmosphere : Vac.   Collimator : 10(mm)   Spin : No",
"------------------------------------------------------------------------------------",
"Analyte               TG kV   uA      FI Acq.(keV)  Anal.(keV)  Time(sec)     DT(%)",
"------------------------------------------------------------------------------------",
"Na                    Rh 50  309-Auto Al  0 - 20    0.8 - 1.2   Live -  179   13",
"",
"<Profile>",
"Channel_info_start",
"Channel : Na",
"Points : 2048",
"Range : 0.000000 - 20.48",
"Step : 0.010000",
"Channel_info_end",
"0",
"0",
"0",
"0",
"0",
"22",
"16",
"17",
"24",
"18",
"36",
"30",
"29",
"51",
"186",
"174",
"57",
"60",
"51",
"53",
"28",
"29",
"29",
"22",
"28",
"32",
"26",
"30",
"85",
"122",
"49",
"23",
"26",
"31",
"14",
"23",
"16",
"22",
"25",
"31",
"36",
"28",
"32",
"19",
"27",
"35",
"29",
"30",
"32",
"83",
"93",
"176",
"740",
"1209",
"350",
"78",
"111",
"224",
"164",
"76",
"70",
"80",
"77",
"102",
"122",
"317",
"648",
"534",
"181",
"135",
"126",
"149",
"327",
"2744",
"9905",
"13104",
"4508",
"597",
"171",
"244",
"1435",
"6021",
"8001",
"4754",
"1752",
"725",
"1431",
"2379",
"1362",
"396",
"136",
"167",
"288",
"704",
"1258",
"1027",
"408",
"371",
"703",
"573",
"347",
"224",
"204",
"170",
"113",
"120",
"122",
"108",
"107",
"117",
"166",
"132",
"153",
"173",
"171",
"211",
"178",
"171",
"149",
"117",
"129",
"120",
"160",
"205",
"176",
"146",
"146",
"146",
"131",
"108",
"135",
"124",
"157",
"134",
"132",
"134",
"134",
"122",
"136",
"154",
"137",
"143",
"130",
"136",
"130",
"109",
"146",
"175",
"132",
"145",
"129",
"148",
"130",
"129",
"124",
"122",
"147",
"122",
"119",
"133",
"123",
"139",
"96",
"124",
"111",
"103",
"117",
"134",
"111",
"117",
"122",
"113",
"110",
"122",
"113",
"105",
"119",
"135",
"121",
"102",
"108",
"115",
"107",
"98",
"87",
"91",
"100",
"87",
"90",
"120",
"106",
"104",
"97",
"107",
"76",
"90",
"92",
"92",
"92",
"89",
"83",
"92",
"90",
"85",
"77",
"107",
"82",
"100",
"85",
"76",
"84",
"91",
"94",
"90",
"86",
"90",
"95",
"85",
"87",
"79",
"75",
"78",
"77",
"77",
"83",
"66",
"73",
"86",
"84",
"100",
"81",
"77",
"63",
"76",
"73",
"82",
"71",
"58",
"71",
"80",
"71",
"69",
"66",
"64",
"77",
"75",
"69",
"75",
"64",
"77",
"72",
"67",
"69",
"84",
"92",
"89",
"73",
"75",
"72",
"73",
"79",
"92",
"64",
"89",
"95",
"96",
"104",
"145",
"158",
"197",
"227",
"354",
"394",
"402",
"499",
"470",
"422",
"348",
"317",
"219",
"173",
"132",
"116",
"98",
"183",
"190",
"306",
"270",
"283",
"157",
"93",
"59",
"70",
"34610",
"Channel_info_start",
"Channel : Mg",
"Points : 0",
"Range : 0.000000 - 0.000000",
"Step : 0.010000",
"Channel_info_end",
"Channel_info_start",
"Channel : Al",
"Points : 0",
"Range : 0.000000 - 0.000000",
"Step : 0.010000",
"Channel_info_end",
"Channel_info_start",
"Channel : Si",
"Points : 0",
"Range : 0.000000 - 0.000000",
"Step : 0.010000",
"Channel_info_end",
"Channel_info_start",
"Channel : P ",
"Points : 0",
"Range : 0.000000 - 0.000000",
"Step : 0.010000",
"Channel_info_end",
"Channel_info_start",
"Channel : S ",
"Points : 0",
"Range : 0.000000 - 0.000000",
"Step : 0.010000",
"Channel_info_end",
"Channel_info_start",
"Channel : Cl",
"Points : 0",
"Range : 0.000000 - 0.000000",
"Step : 0.010000",
"Channel_info_end",
"Channel_info_start",
"Channel : K ",
"Points : 0",
"Range : 0.000000 - 0.000000",
"Step : 0.010000",
"Channel_info_end",
"Channel_info_start",
"Channel : Ca",
"Points : 0",
"Range : 0.000000 - 0.000000",
"Step : 0.010000",
"Channel_info_end",
"Channel_info_start",
"Channel : Ti",
"Points : 0",
"Range : 0.000000 - 0.000000",
"Step : 0.010000",
"Channel_info_end",
"Channel_info_start",
"Channel : V ",
"Points : 0",
"Range : 0.000000 - 0.000000",
"Step : 0.010000",
"Channel_info_end",
"Channel_info_start",
"Channel : Cr",
"Points : 0",
"Range : 0.000000 - 0.000000",
"Step : 0.010000",
"Channel_info_end",
"Channel_info_start",
"Channel : Mn",
"Points : 0",
"Range : 0.000000 - 0.000000",
"Step : 0.010000",
"Channel_info_end",
"Channel_info_start",
"Channel : Fe",
"Points : 0",
"Range : 0.000000 - 0.000000",
"Step : 0.010000",
"Channel_info_end",
"Channel_info_start",
"Channel : Cu",
"Points : 0",
"Range : 0.000000 - 0.000000",
"Step : 0.010000",
"Channel_info_end",
"Channel_info_start",
"Channel : Zn",
"Points : 0",
"Range : 0.000000 - 0.000000",
"Step : 0.010000",
"Channel_info_end",
"Channel_info_start",
"Channel : Sr",
"Points : 0",
"Range : 0.000000 - 0.000000",
"Step : 0.010000",
"Channel_info_end",
"Channel_info_start",
"Channel : Pb",
"Points : 0",
"Range : 0.000000 - 0.000000",
"Step : 0.010000",
"Channel_info_end",
"",
"Qualitative Result",
"--------------------------------------------------------------------------------",
"Element :  Nd, Mg, P , Ca, La, Ru",
"",
"Peak List",
"--------------------------------------------------------------------------------",
"Channel               Line        keV     Net Int.(cps/uA)",
"--------------------------------------------------------------------------------",
"Na                    NdMa         1.00     0.045",
"                      MgKa         1.23     0.008",
"                      P Ka         2.00     0.020",
"                      NdLaESC      3.47     0.020",
"                      CaKa         3.68     0.300",
"                      CaKb         4.01     0.047",
"                      NdLL         4.63     0.108",
"                      LaLa         4.63     0.045",
"                      NdLa         5.23     3.607",
"                      NdLb1        5.72     2.351",
"                      NdLb2        6.09     0.613",
"                      NdLg1        6.60     0.335",
"                      NdLg2        6.88     0.161",
"                      ----         8.06     0.027",
"                      RuKa        19.20     0.142",
"                      ----        19.45     0.066",
"                      ----        20.00     0.066",
"--------------------------------------------------------------------------------",
"",
"Quantitative Result",
"--------------------------------------------------------------------------------",
"Analyte               Result             Std.Dev. Proc.-Calc. Line Intensity(cps/uA)",
"--------------------------------------------------------------------------------",
"====[No. 1 Layer]====< Layer1               >===============================",
"Layer1                   2.450 ug/cm2    -------- Flux       -------- --------",
"Mg                       2.450 ug/cm2    -------- ********** -------- --------",