Folder: mestrado_ifusp/inputs/edxCalibration/edx_raw/2010/junho (part 6)

File: Cr 31499.20100525215754.csv
"Sample    : Cr 31499",
"Operator  : luisf",
"Comment  : cubatao-g-policarbonato",
"Group     : kerr2007ag180cal_lt",
"Date       : 2010-05-25 21:51:52",
"",
"Mesurement Condition",
"------------------------------------------------------------------------------------",
"Instrument : 700HS2   Atmosphere : Vac.   Collimator : 10(mm)   Spin : No",
"------------------------------------------------------------------------------------",
"Analyte               TG kV   uA      FI Acq.(keV)  Anal.(keV)  Time(sec)     DT(%)",
"------------------------------------------------------------------------------------",
"Na                    Rh 50  210-Auto Al  0 - 20    0.8 - 1.2   Live -  179   15",
"",
"<Profile>",
"Channel_info_start",
"Channel : Na",
"Points : 2048",
"Range : 0.000000 - 20.48",
"Step : 0.010000",
"Channel_info_end",
"0",
"0",
"0",
"0",
"1",
"16",
"16",
"13",
"22",
"26",
"22",
"10",
"11",
"13",
"13",
"16",
"12",
"16",
"10",
"10",
"15",
"12",
"15",
"20",
"19",
"32",
"24",
"28",
"64",
"84",
"16",
"11",
"16",
"20",
"11",
"11",
"21",
"17",
"23",
"17",
"17",
"15",
"25",
"15",
"29",
"24",
"26",
"23",
"28",
"26",
"34",
"158",
"763",
"922",
"280",
"74",
"80",
"139",
"129",
"71",
"59",
"60",
"69",
"63",
"81",
"95",
"96",
"101",
"98",
"91",
"110",
"113",
"110",
"156",
"236",
"1505",
"13026",
"35151",
"25534",
"5594",
"454",
"137",
"190",
"827",
"3156",
"4579",
"2193",
"411",
"83",
"49",
"76",
"83",
"70",
"79",
"94",
"94",
"79",
"86",
"97",
"73",
"65",
"64",
"77",
"49",
"72",
"80",
"77",
"72",
"65",
"67",
"67",
"104",
"74",
"79",
"73",
"92",
"79",
"68",
"77",
"76",
"80",
"84",
"110",
"120",
"119",
"95",
"65",
"64",
"82",
"76",
"70",
"73",
"51",
"74",
"77",
"64",
"67",
"77",
"77",
"81",
"84",
"73",
"76",
"83",
"69",
"94",
"69",
"104",
"87",
"84",
"74",
"81",
"77",
"111",
"97",
"117",
"113",
"65",
"62",
"67",
"71",
"86",
"92",
"69",
"76",
"68",
"70",
"65",
"52",
"68",
"77",
"65",
"51",
"76",
"75",
"80",
"64",
"82",
"73",
"76",
"67",
"58",
"57",
"72",
"55",
"65",
"60",
"75",
"49",
"62",
"67",
"57",
"58",
"70",
"60",
"57",
"44",
"46",
"70",
"55",
"63",
"63",
"57",
"56",
"58",
"50",
"40",
"67",
"40",
"62",
"51",
"68",
"44",
"58",
"48",
"49",
"50",
"49",
"34",
"62",
"44",
"61",
"49",
"56",
"55",
"48",
"58",
"49",
"50",
"49",
"45",
"51",
"61",
"34",
"49",
"56",
"49",
"35",
"41",
"45",
"41",
"37",
"48",
"44",
"40",
"43",
"51",
"47",
"41",
"47",
"43",
"46",
"39",
"49",
"38",
"46",
"51",
"44",
"39",
"53",
"56",
"57",
"40",
"70",
"67",
"57",
"86",
"92",
"92",
"135",
"189",
"242",
"264",
"315",
"326",
"282",
"262",
"194",
"164",
"131",
"101",
"70",
"75",
"73",
"91",
"119",
"155",
"127",
"144",
"105",
"57",
"38",
"35",
"21404",
"Channel_info_start",
"Channel : Mg",
"Points : 0",
"Range : 0.000000 - 0.000000",
"Step : 0.010000",
"Channel_info_end",
"Channel_info_start",
"Channel : Al",
"Points : 0",
"Range : 0.000000 - 0.000000",
"Step : 0.010000",
"Channel_info_end",
"Channel_info_start",
"Channel : Si",
"Points : 0",
"Range : 0.000000 - 0.000000",
"Step : 0.010000",
"Channel_info_end",
"Channel_info_start",
"Channel : P ",
"Points : 0",
"Range : 0.000000 - 0.000000",
"Step : 0.010000",
"Channel_info_end",
"Channel_info_start",
"Channel : S ",
"Points : 0",
"Range : 0.000000 - 0.000000",
"Step : 0.010000",
"Channel_info_end",
"Channel_info_start",
"Channel : Cl",
"Points : 0",
"Range : 0.000000 - 0.000000",
"Step : 0.010000",
"Channel_info_end",
"Channel_info_start",
"Channel : K ",
"Points : 0",
"Range : 0.000000 - 0.000000",
"Step : 0.010000",
"Channel_info_end",
"Channel_info_start",
"Channel : Ca",
"Points : 0",
"Range : 0.000000 - 0.000000",
"Step : 0.010000",
"Channel_info_end",
"Channel_info_start",
"Channel : Ti",
"Points : 0",
"Range : 0.000000 - 0.000000",
"Step : 0.010000",
"Channel_info_end",
"Channel_info_start",
"Channel : V ",
"Points : 0",
"Range : 0.000000 - 0.000000",
"Step : 0.010000",
"Channel_info_end",
"Channel_info_start",
"Channel : Cr",
"Points : 0",
"Range : 0.000000 - 0.000000",
"Step : 0.010000",
"Channel_info_end",
"Channel_info_start",
"Channel : Mn",
"Points : 0",
"Range : 0.000000 - 0.000000",
"Step : 0.010000",
"Channel_info_end",
"Channel_info_start",
"Channel : Fe",
"Points : 0",
"Range : 0.000000 - 0.000000",
"Step : 0.010000",
"Channel_info_end",
"Channel_info_start",
"Channel : Cu",
"Points : 0",
"Range : 0.000000 - 0.000000",
"Step : 0.010000",
"Channel_info_end",
"Channel_info_start",
"Channel : Zn",
"Points : 0",
"Range : 0.000000 - 0.000000",
"Step : 0.010000",
"Channel_info_end",
"Channel_info_start",
"Channel : Sr",
"Points : 0",
"Range : 0.000000 - 0.000000",
"Step : 0.010000",
"Channel_info_end",
"Channel_info_start",
"Channel : Pb",
"Points : 0",
"Range : 0.000000 - 0.000000",
"Step : 0.010000",
"Channel_info_end",
"",
"Qualitative Result",
"--------------------------------------------------------------------------------",
"Element :  Ca, Cr, P , Ru",
"",
"Peak List",
"--------------------------------------------------------------------------------",
"Channel               Line        keV     Net Int.(cps/uA)",
"--------------------------------------------------------------------------------",
"Na                    CaLa         0.36     0.003",
"                      CrLa         0.56     0.005",
"                      P Ka         2.00     0.024",
"                      CaKa         3.69     0.371",
"                      CaKb         4.02     0.036",
"                      CrKa         5.41    14.840",
"                      CrKb         5.94     1.849",
"                      ----         8.63     0.035",
"                      RuKa        19.20     0.145",
"                      ----        19.44     0.067",
"                      ----        20.01     0.061",
"--------------------------------------------------------------------------------",
"",
"Quantitative Result",
"--------------------------------------------------------------------------------",
"Analyte               Result             Std.Dev. Proc.-Calc. Line Intensity(cps/uA)",
"--------------------------------------------------------------------------------",
"====[No. 1 Layer]====< Layer1               >===============================",
"Layer1                   0.000 ug/cm2    -------- Flux       -------- --------",

File: Cr 31499.20100611004758.csv
"Sample    : Cr 31499",
"Operator  : thiago",
"Comment  : cubatao-g-policarbonato",
"Group     : kerr2007ag180cal_lt",
"Date       : 2010-06-11 00:43:56",
"",
"Mesurement Condition",
"------------------------------------------------------------------------------------",
"Instrument : 700HS2   Atmosphere : Vac.   Collimator : 10(mm)   Spin : No",
"------------------------------------------------------------------------------------",
"Analyte               TG kV   uA      FI Acq.(keV)  Anal.(keV)  Time(sec)     DT(%)",
"------------------------------------------------------------------------------------",
"Na                    Rh 50  210-Auto Al  0 - 20    0.8 - 1.2   Live -  180   14",
"",
"<Profile>",
"Channel_info_start",
"Channel : Na",
"Points : 2048",
"Range : 0.000000 - 20.48",
"Step : 0.010000",
"Channel_info_end",
"0",
"0",
"0",
"0",
"0",
"13",
"11",
"10",
"7",
"8",
"5",
"5",
"16",
"8",
"16",
"15",
"14",
"11",
"14",
"17",
"11",
"22",
"15",
"13",
"20",
"22",
"10",
"23",
"54",
"70",
"27",
"23",
"15",
"11",
"9",
"13",
"21",
"16",
"20",
"19",
"23",
"19",
"19",
"19",
"19",
"16",
"19",
"27",
"22",
"27",
"32",
"169",
"720",
"865",
"278",
"62",
"58",
"171",
"108",
"59",
"60",
"72",
"47",
"77",
"63",
"97",
"89",
"89",
"90",
"77",
"67",
"96",
"119",
"173",
"211",
"1577",
"12775",
"34336",
"24342",
"5249",
"351",
"128",
"188",
"843",
"2980",
"4557",
"2083",
"366",
"71",
"63",
"59",
"75",
"86",
"97",
"94",
"85",
"79",
"76",
"61",
"71",
"62",
"77",
"59",
"49",
"59",
"73",
"74",
"75",
"73",
"74",
"82",
"75",
"86",
"88",
"84",
"100",
"86",
"72",
"75",
"78",
"90",
"84",
"99",
"127",
"127",
"62",
"77",
"67",
"61",
"69",
"89",
"74",
"57",
"81",
"76",
"63",
"77",
"74",
"67",
"93",
"85",
"72",
"76",
"78",
"79",
"76",
"72",
"82",
"73",
"70",
"64",
"58",
"81",
"94",
"107",
"119",
"97",
"73",
"62",
"63",
"81",
"78",
"72",
"78",
"69",
"84",
"67",
"77",
"60",
"76",
"62",
"57",
"79",
"53",
"58",
"75",
"73",
"63",
"56",
"82",
"74",
"67",
"66",
"73",
"51",
"60",
"62",
"59",
"56",
"77",
"56",
"63",
"60",
"71",
"66",
"61",
"73",
"60",
"53",
"74",
"62",
"47",
"38",
"59",
"51",
"44",
"48",
"71",
"56",
"46",
"39",
"63",
"46",
"58",
"47",
"46",
"57",
"46",
"59",
"52",
"47",
"59",
"34",
"39",
"67",
"40",
"38",
"46",
"45",
"35",
"45",
"60",
"37",
"62",
"44",
"39",
"54",
"42",
"39",
"47",
"49",
"44",
"61",
"38",
"51",
"51",
"46",
"45",
"42",
"37",
"42",
"34",
"51",
"36",
"49",
"40",
"54",
"47",
"37",
"42",
"52",
"49",
"47",
"62",
"65",
"74",
"76",
"88",
"111",
"120",
"173",
"240",
"285",
"311",
"329",
"296",
"261",
"218",
"152",
"113",
"88",
"79",
"75",
"57",
"103",
"119",
"134",
"138",
"143",
"83",
"58",
"35",
"49",
"21204",
"Channel_info_start",
"Channel : Mg",
"Points : 0",
"Range : 0.000000 - 0.000000",
"Step : 0.010000",
"Channel_info_end",
"Channel_info_start",
"Channel : Al",
"Points : 0",
"Range : 0.000000 - 0.000000",
"Step : 0.010000",
"Channel_info_end",
"Channel_info_start",
"Channel : Si",
"Points : 0",
"Range : 0.000000 - 0.000000",
"Step : 0.010000",
"Channel_info_end",
"Channel_info_start",
"Channel : P ",
"Points : 0",
"Range : 0.000000 - 0.000000",
"Step : 0.010000",
"Channel_info_end",
"Channel_info_start",
"Channel : S ",
"Points : 0",
"Range : 0.000000 - 0.000000",
"Step : 0.010000",
"Channel_info_end",
"Channel_info_start",
"Channel : Cl",
"Points : 0",
"Range : 0.000000 - 0.000000",
"Step : 0.010000",
"Channel_info_end",
"Channel_info_start",
"Channel : K ",
"Points : 0",
"Range : 0.000000 - 0.000000",
"Step : 0.010000",
"Channel_info_end",
"Channel_info_start",
"Channel : Ca",
"Points : 0",
"Range : 0.000000 - 0.000000",
"Step : 0.010000",
"Channel_info_end",
"Channel_info_start",
"Channel : Ti",
"Points : 0",
"Range : 0.000000 - 0.000000",
"Step : 0.010000",
"Channel_info_end",
"Channel_info_start",
"Channel : V ",
"Points : 0",
"Range : 0.000000 - 0.000000",
"Step : 0.010000",
"Channel_info_end",
"Channel_info_start",
"Channel : Cr",
"Points : 0",
"Range : 0.000000 - 0.000000",
"Step : 0.010000",
"Channel_info_end",
"Channel_info_start",
"Channel : Mn",
"Points : 0",
"Range : 0.000000 - 0.000000",
"Step : 0.010000",
"Channel_info_end",
"Channel_info_start",
"Channel : Fe",
"Points : 0",
"Range : 0.000000 - 0.000000",
"Step : 0.010000",
"Channel_info_end",
"Channel_info_start",
"Channel : Cu",
"Points : 0",
"Range : 0.000000 - 0.000000",
"Step : 0.010000",
"Channel_info_end",
"Channel_info_start",
"Channel : Zn",
"Points : 0",
"Range : 0.000000 - 0.000000",
"Step : 0.010000",
"Channel_info_end",
"Channel_info_start",
"Channel : Sr",
"Points : 0",
"Range : 0.000000 - 0.000000",
"Step : 0.010000",
"Channel_info_end",
"Channel_info_start",
"Channel : Pb",
"Points : 0",
"Range : 0.000000 - 0.000000",
"Step : 0.010000",
"Channel_info_end",
"",
"Qualitative Result",
"--------------------------------------------------------------------------------",
"Element :  P , Ca, Cr, Ru",
"",
"Peak List",
"--------------------------------------------------------------------------------",
"Channel               Line        keV     Net Int.(cps/uA)",
"--------------------------------------------------------------------------------",
"Na                    P Ka         2.01     0.023",
"                      CaKa         3.68     0.360",
"                      CaKb         4.00     0.040",
"                      CrKa         5.40    14.468",
"                      CrKb         5.94     1.843",
"                      ----         8.67     0.031",
"                      RuKa        19.20     0.141",
"                      ----        19.41     0.077",
"                      ----        20.04     0.060",
"--------------------------------------------------------------------------------",
"",
"Quantitative Result",
"--------------------------------------------------------------------------------",
"Analyte               Result             Std.Dev. Proc.-Calc. Line Intensity(cps/uA)",
"--------------------------------------------------------------------------------",
"====[No. 1 Layer]====< Layer1               >===============================",
"Layer1                   0.000 ug/cm2    -------- Flux       -------- --------",

File: CsBr 31513.20100525230115.csv
"Sample    : CsBr 31513",
"Operator  : luisf",
"Comment  : cubatao-g-policarbonato",
"Group     : kerr2007ag180cal_lt",
"Date       : 2010-05-25 22:57:12",
"",
"Mesurement Condition",
"------------------------------------------------------------------------------------",
"Instrument : 700HS2   Atmosphere : Vac.   Collimator : 10(mm)   Spin : No",
"------------------------------------------------------------------------------------",
"Analyte               TG kV   uA      FI Acq.(keV)  Anal.(keV)  Time(sec)     DT(%)",
"------------------------------------------------------------------------------------",
"Na                    Rh 50  210-Auto Al  0 - 20    0.8 - 1.2   Live -  178   14",
"",
"<Profile>",
"Channel_info_start",
"Channel : Na",
"Points : 2048",
"Range : 0.000000 - 20.48",
"Step : 0.010000",
"Channel_info_end",
"0",
"0",
"0",
"0",
"0",
"26",
"27",
"34",
"27",
"18",
"11",
"23",
"25",
"26",
"27",
"33",
"24",
"26",
"47",
"56",
"92",
"548",
"493",
"143",
"43",
"33",
"31",
"28",
"54",
"89",
"36",
"28",
"22",
"34",
"26",
"51",
"76",
"54",
"30",
"22",
"26",
"47",
"46",
"34",
"22",
"34",
"27",
"40",
"36",
"42",
"54",
"116",
"548",
"866",
"495",
"274",
"132",
"178",
"179",
"385",
"2317",
"6866",
"4238",
"817",
"350",
"2057",
"4225",
"3216",
"1099",
"501",
"908",
"1035",
"293",
"133",
"238",
"584",
"499",
"194",
"199",
"393",
"263",
"131",
"101",
"55",
"44",
"56",
"34",
"56",
"67",
"75",
"78",
"86",
"91",
"90",
"94",
"96",
"109",
"105",
"108",
"107",
"107",
"103",
"88",
"81",
"65",
"80",
"77",
"101",
"93",
"79",
"70",
"89",
"99",
"105",
"93",
"100",
"87",
"94",
"94",
"114",
"104",
"102",
"124",
"180",
"154",
"121",
"103",
"115",
"104",
"106",
"102",
"104",
"103",
"96",
"93",
"109",
"106",
"108",
"75",
"95",
"99",
"81",
"100",
"107",
"98",
"117",
"90",
"99",
"90",
"105",
"98",
"104",
"93",
"90",
"78",
"95",
"86",
"68",
"89",
"90",
"96",
"106",
"109",
"118",
"109",
"112",
"244",
"1100",
"4092",
"9510",
"11783",
"9115",
"3895",
"945",
"212",
"111",
"95",
"95",
"83",
"91",
"79",
"81",
"113",
"99",
"125",
"104",
"156",
"406",
"998",
"1665",
"1814",
"1310",
"675",
"301",
"169",
"88",
"63",
"57",
"62",
"79",
"68",
"56",
"66",
"55",
"59",
"60",
"55",
"59",
"50",
"72",
"47",
"56",
"54",
"59",
"55",
"53",
"46",
"69",
"52",
"64",
"53",
"46",
"43",
"56",
"48",
"44",
"55",
"62",
"60",
"51",
"68",
"70",
"65",
"57",
"49",
"62",
"50",
"60",
"47",
"54",
"49",
"46",
"40",
"54",
"44",
"39",
"46",
"43",
"48",
"42",
"46",
"56",
"49",
"44",
"47",
"52",
"49",
"51",
"56",
"63",
"62",
"69",
"52",
"47",
"63",
"48",
"64",
"82",
"104",
"126",
"164",
"226",
"247",
"273",
"272",
"302",
"262",
"244",
"160",
"124",
"101",
"91",
"72",
"80",
"111",
"142",
"184",
"213",
"183",
"112",
"80",
"55",
"31",
"32893",
"Channel_info_start",
"Channel : Mg",
"Points : 0",
"Range : 0.000000 - 0.000000",
"Step : 0.010000",
"Channel_info_end",
"Channel_info_start",
"Channel : Al",
"Points : 0",
"Range : 0.000000 - 0.000000",
"Step : 0.010000",
"Channel_info_end",
"Channel_info_start",
"Channel : Si",
"Points : 0",
"Range : 0.000000 - 0.000000",
"Step : 0.010000",
"Channel_info_end",
"Channel_info_start",
"Channel : P ",
"Points : 0",
"Range : 0.000000 - 0.000000",
"Step : 0.010000",
"Channel_info_end",
"Channel_info_start",
"Channel : S ",
"Points : 0",
"Range : 0.000000 - 0.000000",
"Step : 0.010000",
"Channel_info_end",
"Channel_info_start",
"Channel : Cl",
"Points : 0",
"Range : 0.000000 - 0.000000",
"Step : 0.010000",
"Channel_info_end",
"Channel_info_start",
"Channel : K ",
"Points : 0",
"Range : 0.000000 - 0.000000",
"Step : 0.010000",
"Channel_info_end",
"Channel_info_start",
"Channel : Ca",
"Points : 0",
"Range : 0.000000 - 0.000000",
"Step : 0.010000",
"Channel_info_end",
"Channel_info_start",
"Channel : Ti",
"Points : 0",
"Range : 0.000000 - 0.000000",
"Step : 0.010000",
"Channel_info_end",
"Channel_info_start",
"Channel : V ",
"Points : 0",
"Range : 0.000000 - 0.000000",
"Step : 0.010000",
"Channel_info_end",
"Channel_info_start",
"Channel : Cr",
"Points : 0",
"Range : 0.000000 - 0.000000",
"Step : 0.010000",
"Channel_info_end",
"Channel_info_start",
"Channel : Mn",
"Points : 0",
"Range : 0.000000 - 0.000000",
"Step : 0.010000",
"Channel_info_end",
"Channel_info_start",
"Channel : Fe",
"Points : 0",
"Range : 0.000000 - 0.000000",
"Step : 0.010000",
"Channel_info_end",
"Channel_info_start",
"Channel : Cu",
"Points : 0",
"Range : 0.000000 - 0.000000",
"Step : 0.010000",
"Channel_info_end",
"Channel_info_start",
"Channel : Zn",
"Points : 0",
"Range : 0.000000 - 0.000000",
"Step : 0.010000",
"Channel_info_end",
"Channel_info_start",
"Channel : Sr",
"Points : 0",
"Range : 0.000000 - 0.000000",
"Step : 0.010000",
"Channel_info_end",
"Channel_info_start",
"Channel : Pb",
"Points : 0",
"Range : 0.000000 - 0.000000",
"Step : 0.010000",
"Channel_info_end",
"",
"Qualitative Result",
"--------------------------------------------------------------------------------",
"Element :  Br, P , Cs, Ce",
"",
"Peak List",
"--------------------------------------------------------------------------------",
"Channel               Line        keV     Net Int.(cps/uA)",
"--------------------------------------------------------------------------------",
"Na                    BrLa         1.49     0.194",
"                      P Ka         2.00     0.021",
"                      CsLaESC      2.55     0.022",
"                      ----         3.70     0.296",
"                      CsLa         4.28     2.582",
"                      CsLb1        4.63     1.641",
"                      CsLb2        4.94     0.412",
"                      CsLg1        5.28     0.155",
"                      CeLb1        5.28     0.049",
"                      CsLg2        5.52     0.115",
"                      BrKa        11.88     6.185",
"                      BrKb        13.28     0.972",
"                      ----        19.24     0.131",
"                      ----        20.00     0.090",
"--------------------------------------------------------------------------------",
"",
"Quantitative Result",
"--------------------------------------------------------------------------------",
"Analyte               Result             Std.Dev. Proc.-Calc. Line Intensity(cps/uA)",
"--------------------------------------------------------------------------------",
"====[No. 1 Layer]====< Layer1               >===============================",
"Layer1                   0.000 ug/cm2    -------- Flux       -------- --------",

File: CsBr 31513.20100611013426.csv
"Sample    : CsBr 31513",
"Operator  : Luís",
"Comment  : cubatao-g-policarbonato",
"Group     : kerr2007ag180cal_lt",
"Date       : 2010-06-11 01:30:24",
"",
"Mesurement Condition",
"------------------------------------------------------------------------------------",
"Instrument : 700HS2   Atmosphere : Vac.   Collimator : 10(mm)   Spin : No",
"------------------------------------------------------------------------------------",
"Analyte               TG kV   uA      FI Acq.(keV)  Anal.(keV)  Time(sec)     DT(%)",
"------------------------------------------------------------------------------------",
"Na                    Rh 50  210-Auto Al  0 - 20    0.8 - 1.2   Live -  179   14",
"",
"<Profile>",
"Channel_info_start",
"Channel : Na",
"Points : 2048",
"Range : 0.000000 - 20.48",
"Step : 0.010000",
"Channel_info_end",
"0",
"0",
"0",
"0",
"0",
"34",
"34",
"27",
"21",
"22",
"24",
"18",
"23",
"16",
"26",
"29",
"30",
"25",
"46",
"52",
"119",
"582",
"476",
"156",
"41",
"35",
"39",
"21",
"53",
"67",
"34",
"29",
"27",
"26",
"10",
"34",
"93",
"47",
"29",
"28",
"40",
"59",
"51",
"34",
"25",
"38",
"37",
"35",
"30",
"39",
"51",
"128",
"571",
"835",
"470",
"238",
"105",
"161",
"195",
"410",
"2379",
"6714",
"4240",
"728",
"374",
"2042",
"4297",
"3143",
"1102",
"528",
"969",
"995",
"332",
"115",
"221",
"534",
"501",
"213",
"204",
"352",
"262",
"125",
"108",
"55",
"47",
"69",
"53",
"52",
"63",
"85",
"67",
"83",
"89",
"76",
"79",
"81",
"107",
"120",
"108",
"132",
"104",
"78",
"68",
"81",
"74",
"88",
"82",
"98",
"93",
"87",
"86",
"91",
"90",
"81",
"93",
"89",
"96",
"95",
"81",
"95",
"111",
"127",
"118",
"156",
"129",
"115",
"88",
"99",
"104",
"91",
"103",
"106",
"92",
"100",
"103",
"109",
"103",
"89",
"96",
"85",
"89",
"86",
"99",
"82",
"101",
"107",
"79",
"81",
"65",
"90",
"79",
"94",
"105",
"86",
"95",
"86",
"89",
"73",
"89",
"92",
"85",
"101",
"93",
"103",
"114",
"131",
"270",
"1225",
"4419",
"9757",
"11745",
"8866",
"3485",
"875",
"181",
"107",
"91",
"78",
"76",
"79",
"93",
"89",
"91",
"98",
"105",
"102",
"147",
"406",
"971",
"1743",
"1825",
"1231",
"639",
"281",
"161",
"66",
"54",
"63",
"56",
"53",
"65",
"63",
"67",
"60",
"62",
"67",
"78",
"63",
"64",
"56",
"51",
"55",
"63",
"54",
"68",
"72",
"75",
"61",
"49",
"57",
"62",
"47",
"52",
"54",
"59",
"65",
"49",
"48",
"49",
"62",
"51",
"55",
"56",
"50",
"44",
"51",
"62",
"64",
"39",
"52",
"56",
"55",
"50",
"55",
"34",
"59",
"44",
"56",
"48",
"56",
"54",
"55",
"52",
"59",
"53",
"46",
"52",
"42",
"53",
"52",
"56",
"51",
"63",
"78",
"75",
"69",
"98",
"88",
"116",
"125",
"177",
"230",
"249",
"295",
"293",
"297",
"255",
"193",
"161",
"147",
"104",
"68",
"73",
"99",
"113",
"163",
"180",
"232",
"204",
"116",
"74",
"40",
"52",
"32812",
"Channel_info_start",
"Channel : Mg",
"Points : 0",
"Range : 0.000000 - 0.000000",
"Step : 0.010000",
"Channel_info_end",
"Channel_info_start",
"Channel : Al",
"Points : 0",
"Range : 0.000000 - 0.000000",
"Step : 0.010000",
"Channel_info_end",
"Channel_info_start",
"Channel : Si",
"Points : 0",
"Range : 0.000000 - 0.000000",
"Step : 0.010000",
"Channel_info_end",
"Channel_info_start",
"Channel : P ",
"Points : 0",
"Range : 0.000000 - 0.000000",
"Step : 0.010000",
"Channel_info_end",
"Channel_info_start",
"Channel : S ",
"Points : 0",
"Range : 0.000000 - 0.000000",
"Step : 0.010000",
"Channel_info_end",
"Channel_info_start",
"Channel : Cl",
"Points : 0",
"Range : 0.000000 - 0.000000",
"Step : 0.010000",
"Channel_info_end",
"Channel_info_start",
"Channel : K ",
"Points : 0",
"Range : 0.000000 - 0.000000",
"Step : 0.010000",
"Channel_info_end",
"Channel_info_start",
"Channel : Ca",
"Points : 0",
"Range : 0.000000 - 0.000000",
"Step : 0.010000",
"Channel_info_end",
"Channel_info_start",
"Channel : Ti",
"Points : 0",
"Range : 0.000000 - 0.000000",
"Step : 0.010000",
"Channel_info_end",
"Channel_info_start",
"Channel : V ",
"Points : 0",
"Range : 0.000000 - 0.000000",
"Step : 0.010000",
"Channel_info_end",
"Channel_info_start",
"Channel : Cr",
"Points : 0",
"Range : 0.000000 - 0.000000",
"Step : 0.010000",
"Channel_info_end",
"Channel_info_start",
"Channel : Mn",
"Points : 0",
"Range : 0.000000 - 0.000000",
"Step : 0.010000",
"Channel_info_end",
"Channel_info_start",
"Channel : Fe",
"Points : 0",
"Range : 0.000000 - 0.000000",
"Step : 0.010000",
"Channel_info_end",
"Channel_info_start",
"Channel : Cu",
"Points : 0",
"Range : 0.000000 - 0.000000",
"Step : 0.010000",
"Channel_info_end",
"Channel_info_start",
"Channel : Zn",
"Points : 0",
"Range : 0.000000 - 0.000000",
"Step : 0.010000",
"Channel_info_end",
"Channel_info_start",
"Channel : Sr",
"Points : 0",
"Range : 0.000000 - 0.000000",
"Step : 0.010000",
"Channel_info_end",
"Channel_info_start",
"Channel : Pb",
"Points : 0",
"Range : 0.000000 - 0.000000",
"Step : 0.010000",
"Channel_info_end",
"",
"Qualitative Result",
"--------------------------------------------------------------------------------",
"Element :  Br, P , Cs, Ce, Rh",
"",
"Peak List",
"--------------------------------------------------------------------------------",
"Channel               Line        keV     Net Int.(cps/uA)",
"--------------------------------------------------------------------------------",
"Na                    BrLa         1.50     0.186",
"                      P Ka         2.01     0.019",
"                      CsLaESC      2.52     0.021",
"                      ----         3.68     0.292",
"                      CsLa         4.28     2.589",
"                      CsLb1        4.63     1.625",
"                      CsLb2        4.93     0.380",
"                      CsLg1        5.27     0.155",
"                      CeLb1        5.27     0.044",
"                      CsLg2        5.54     0.107",
"                      BrKa        11.88     6.243",
"                      BrKb        13.27     0.937",
"                      RhKaC       19.22     0.128",
"                      ----        19.44     0.058",
"                      RhKa        20.08     0.103",
"--------------------------------------------------------------------------------",
"",
"Quantitative Result",
"--------------------------------------------------------------------------------",
"Analyte               Result             Std.Dev. Proc.-Calc. Line Intensity(cps/uA)",
"--------------------------------------------------------------------------------",
"====[No. 1 Layer]====< Layer1               >===============================",
"Layer1                   0.000 ug/cm2    -------- Flux       -------- --------",