Folder: mestrado_ifusp/inputs/edxCalibration/edx_raw/2010/junho (part 12)

File: Pb 15772.20100526013406.csv
"Sample    : Pb 15772",
"Operator  : luisf",
"Comment  : cubatao-g-policarbonato",
"Group     : kerr2007ag180cal_lt",
"Date       : 2010-05-26 01:30:03",
"",
"Mesurement Condition",
"------------------------------------------------------------------------------------",
"Instrument : 700HS2   Atmosphere : Vac.   Collimator : 10(mm)   Spin : No",
"------------------------------------------------------------------------------------",
"Analyte               TG kV   uA      FI Acq.(keV)  Anal.(keV)  Time(sec)     DT(%)",
"------------------------------------------------------------------------------------",
"Na                    Rh 50  152-Auto Al  0 - 20    0.8 - 1.2   Live -  179   15",
"",
"<Profile>",
"Channel_info_start",
"Channel : Na",
"Points : 2048",
"Range : 0.000000 - 20.48",
"Step : 0.010000",
"Channel_info_end",
"0",
"0",
"0",
"0",
"0",
"26",
"30",
"23",
"75",
"85",
"87",
"50",
"35",
"27",
"27",
"39",
"23",
"28",
"24",
"24",
"34",
"47",
"33",
"39",
"46",
"99",
"307",
"221",
"142",
"184",
"196",
"312",
"478",
"2622",
"4286",
"3348",
"1237",
"325",
"420",
"216",
"88",
"73",
"60",
"80",
"175",
"151",
"68",
"34",
"24",
"18",
"33",
"81",
"246",
"337",
"113",
"35",
"40",
"54",
"51",
"25",
"15",
"25",
"30",
"22",
"41",
"36",
"54",
"50",
"26",
"43",
"44",
"47",
"36",
"56",
"42",
"46",
"37",
"38",
"51",
"39",
"38",
"41",
"54",
"68",
"53",
"75",
"60",
"74",
"68",
"79",
"92",
"89",
"102",
"86",
"72",
"94",
"83",
"92",
"90",
"101",
"98",
"98",
"68",
"89",
"83",
"80",
"92",
"96",
"99",
"98",
"107",
"105",
"91",
"108",
"121",
"124",
"127",
"95",
"91",
"81",
"86",
"114",
"95",
"141",
"134",
"110",
"117",
"99",
"126",
"196",
"416",
"699",
"555",
"261",
"128",
"117",
"107",
"114",
"98",
"95",
"116",
"108",
"92",
"114",
"113",
"107",
"162",
"485",
"1714",
"5237",
"9301",
"10227",
"5730",
"1922",
"413",
"170",
"107",
"118",
"100",
"102",
"155",
"202",
"230",
"214",
"124",
"115",
"85",
"103",
"79",
"83",
"95",
"128",
"203",
"307",
"376",
"499",
"574",
"783",
"2233",
"5183",
"6887",
"5846",
"2971",
"1329",
"610",
"442",
"352",
"280",
"166",
"124",
"102",
"93",
"85",
"79",
"59",
"89",
"69",
"48",
"56",
"56",
"63",
"54",
"72",
"100",
"75",
"72",
"90",
"120",
"218",
"537",
"903",
"996",
"726",
"396",
"257",
"285",
"327",
"348",
"235",
"125",
"105",
"74",
"55",
"64",
"79",
"100",
"73",
"63",
"54",
"51",
"33",
"56",
"51",
"37",
"59",
"42",
"31",
"28",
"55",
"48",
"44",
"41",
"39",
"54",
"46",
"38",
"44",
"36",
"33",
"46",
"39",
"61",
"39",
"43",
"34",
"39",
"57",
"38",
"48",
"42",
"38",
"59",
"57",
"59",
"50",
"59",
"62",
"78",
"75",
"113",
"120",
"182",
"202",
"210",
"227",
"230",
"226",
"155",
"167",
"116",
"92",
"75",
"54",
"65",
"99",
"188",
"192",
"236",
"206",
"153",
"72",
"37",
"29",
"20124",
"Channel_info_start",
"Channel : Mg",
"Points : 0",
"Range : 0.000000 - 0.000000",
"Step : 0.010000",
"Channel_info_end",
"Channel_info_start",
"Channel : Al",
"Points : 0",
"Range : 0.000000 - 0.000000",
"Step : 0.010000",
"Channel_info_end",
"Channel_info_start",
"Channel : Si",
"Points : 0",
"Range : 0.000000 - 0.000000",
"Step : 0.010000",
"Channel_info_end",
"Channel_info_start",
"Channel : P ",
"Points : 0",
"Range : 0.000000 - 0.000000",
"Step : 0.010000",
"Channel_info_end",
"Channel_info_start",
"Channel : S ",
"Points : 0",
"Range : 0.000000 - 0.000000",
"Step : 0.010000",
"Channel_info_end",
"Channel_info_start",
"Channel : Cl",
"Points : 0",
"Range : 0.000000 - 0.000000",
"Step : 0.010000",
"Channel_info_end",
"Channel_info_start",
"Channel : K ",
"Points : 0",
"Range : 0.000000 - 0.000000",
"Step : 0.010000",
"Channel_info_end",
"Channel_info_start",
"Channel : Ca",
"Points : 0",
"Range : 0.000000 - 0.000000",
"Step : 0.010000",
"Channel_info_end",
"Channel_info_start",
"Channel : Ti",
"Points : 0",
"Range : 0.000000 - 0.000000",
"Step : 0.010000",
"Channel_info_end",
"Channel_info_start",
"Channel : V ",
"Points : 0",
"Range : 0.000000 - 0.000000",
"Step : 0.010000",
"Channel_info_end",
"Channel_info_start",
"Channel : Cr",
"Points : 0",
"Range : 0.000000 - 0.000000",
"Step : 0.010000",
"Channel_info_end",
"Channel_info_start",
"Channel : Mn",
"Points : 0",
"Range : 0.000000 - 0.000000",
"Step : 0.010000",
"Channel_info_end",
"Channel_info_start",
"Channel : Fe",
"Points : 0",
"Range : 0.000000 - 0.000000",
"Step : 0.010000",
"Channel_info_end",
"Channel_info_start",
"Channel : Cu",
"Points : 0",
"Range : 0.000000 - 0.000000",
"Step : 0.010000",
"Channel_info_end",
"Channel_info_start",
"Channel : Zn",
"Points : 0",
"Range : 0.000000 - 0.000000",
"Step : 0.010000",
"Channel_info_end",
"Channel_info_start",
"Channel : Sr",
"Points : 0",
"Range : 0.000000 - 0.000000",
"Step : 0.010000",
"Channel_info_end",
"Channel_info_start",
"Channel : Pb",
"Points : 0",
"Range : 0.000000 - 0.000000",
"Step : 0.010000",
"Channel_info_end",
"",
"Qualitative Result",
"--------------------------------------------------------------------------------",
"Element :  Pb, S , Cl, Ca, Ir, Ru",
"",
"Peak List",
"--------------------------------------------------------------------------------",
"Channel               Line        keV     Net Int.(cps/uA)",
"--------------------------------------------------------------------------------",
"Na                    ----         0.60     0.028",
"                      ----         0.70     0.022",
"                      ----         1.83     0.105",
"                      PbMa         2.37     1.281",
"                      S Ka         2.37     0.598",
"                      ClKa         2.66     0.159",
"                      ----         3.11     0.058",
"                      CaKa         3.69     0.159",
"                      CaKb         4.04     0.022",
"                      PbLL         9.16     0.285",
"                      IrLa         9.16     0.123",
"                      PbLa        10.54     7.118",
"                      IrLb1       10.71     0.068",
"                      PbLn        11.34     0.097",
"                      PbLb4       12.24     0.168",
"                      PbLb1       12.61     4.798",
"                      ----        13.06     0.095",
"                      PbLg1       14.72     0.700",
"                      PbLg2       15.17     0.203",
"                      RuKa        19.20     0.145",
"                      ----        19.98     0.124",
"--------------------------------------------------------------------------------",
"",
"Quantitative Result",
"--------------------------------------------------------------------------------",
"Analyte               Result             Std.Dev. Proc.-Calc. Line Intensity(cps/uA)",
"--------------------------------------------------------------------------------",
"====[No. 1 Layer]====< Layer1               >===============================",
"Layer1                   0.000 ug/cm2    -------- Flux       -------- --------",

File: Pb 31519.20100526013809.csv
"Sample    : Pb 31519",
"Operator  : luisf",
"Comment  : cubatao-g-policarbonato",
"Group     : kerr2007ag180cal_lt",
"Date       : 2010-05-26 01:34:05",
"",
"Mesurement Condition",
"------------------------------------------------------------------------------------",
"Instrument : 700HS2   Atmosphere : Vac.   Collimator : 10(mm)   Spin : No",
"------------------------------------------------------------------------------------",
"Analyte               TG kV   uA      FI Acq.(keV)  Anal.(keV)  Time(sec)     DT(%)",
"------------------------------------------------------------------------------------",
"Na                    Rh 50  168-Auto Al  0 - 20    0.8 - 1.2   Live -  179   15",
"",
"<Profile>",
"Channel_info_start",
"Channel : Na",
"Points : 2048",
"Range : 0.000000 - 20.48",
"Step : 0.010000",
"Channel_info_end",
"0",
"0",
"0",
"0",
"0",
"24",
"30",
"24",
"77",
"100",
"94",
"52",
"28",
"29",
"35",
"37",
"24",
"30",
"25",
"29",
"33",
"32",
"28",
"38",
"40",
"107",
"296",
"243",
"139",
"161",
"227",
"297",
"483",
"2735",
"4259",
"3476",
"1250",
"358",
"437",
"227",
"77",
"70",
"79",
"84",
"147",
"152",
"78",
"21",
"33",
"32",
"38",
"95",
"280",
"372",
"116",
"38",
"47",
"63",
"70",
"42",
"28",
"26",
"27",
"41",
"38",
"46",
"37",
"39",
"32",
"44",
"44",
"52",
"35",
"42",
"40",
"59",
"54",
"65",
"50",
"46",
"65",
"57",
"63",
"64",
"58",
"49",
"57",
"59",
"70",
"84",
"90",
"90",
"86",
"107",
"89",
"92",
"94",
"94",
"97",
"105",
"101",
"107",
"101",
"108",
"57",
"84",
"80",
"99",
"119",
"112",
"101",
"102",
"96",
"114",
"132",
"114",
"96",
"96",
"86",
"126",
"89",
"90",
"129",
"140",
"124",
"127",
"120",
"116",
"148",
"235",
"459",
"733",
"600",
"300",
"150",
"111",
"119",
"102",
"101",
"128",
"100",
"88",
"119",
"117",
"127",
"147",
"182",
"530",
"1849",
"5513",
"9609",
"10557",
"5868",
"1934",
"437",
"170",
"129",
"109",
"110",
"110",
"156",
"206",
"246",
"233",
"153",
"84",
"89",
"99",
"85",
"104",
"88",
"149",
"200",
"293",
"407",
"498",
"606",
"853",
"2267",
"5269",
"7078",
"6031",
"3125",
"1386",
"611",
"463",
"396",
"322",
"175",
"147",
"99",
"92",
"104",
"77",
"67",
"82",
"60",
"71",
"62",
"61",
"67",
"79",
"72",
"79",
"96",
"102",
"77",
"122",
"272",
"583",
"905",
"1155",
"806",
"402",
"248",
"318",
"367",
"331",
"244",
"162",
"88",
"64",
"57",
"72",
"74",
"73",
"80",
"69",
"62",
"51",
"57",
"55",
"49",
"54",
"41",
"48",
"58",
"46",
"45",
"38",
"45",
"47",
"48",
"52",
"52",
"42",
"39",
"47",
"38",
"50",
"38",
"52",
"29",
"53",
"42",
"47",
"55",
"45",
"53",
"51",
"45",
"65",
"50",
"47",
"65",
"59",
"61",
"73",
"103",
"125",
"131",
"189",
"191",
"237",
"261",
"265",
"195",
"198",
"172",
"123",
"91",
"71",
"55",
"73",
"125",
"169",
"228",
"294",
"218",
"144",
"90",
"66",
"54",
"21936",
"Channel_info_start",
"Channel : Mg",
"Points : 0",
"Range : 0.000000 - 0.000000",
"Step : 0.010000",
"Channel_info_end",
"Channel_info_start",
"Channel : Al",
"Points : 0",
"Range : 0.000000 - 0.000000",
"Step : 0.010000",
"Channel_info_end",
"Channel_info_start",
"Channel : Si",
"Points : 0",
"Range : 0.000000 - 0.000000",
"Step : 0.010000",
"Channel_info_end",
"Channel_info_start",
"Channel : P ",
"Points : 0",
"Range : 0.000000 - 0.000000",
"Step : 0.010000",
"Channel_info_end",
"Channel_info_start",
"Channel : S ",
"Points : 0",
"Range : 0.000000 - 0.000000",
"Step : 0.010000",
"Channel_info_end",
"Channel_info_start",
"Channel : Cl",
"Points : 0",
"Range : 0.000000 - 0.000000",
"Step : 0.010000",
"Channel_info_end",
"Channel_info_start",
"Channel : K ",
"Points : 0",
"Range : 0.000000 - 0.000000",
"Step : 0.010000",
"Channel_info_end",
"Channel_info_start",
"Channel : Ca",
"Points : 0",
"Range : 0.000000 - 0.000000",
"Step : 0.010000",
"Channel_info_end",
"Channel_info_start",
"Channel : Ti",
"Points : 0",
"Range : 0.000000 - 0.000000",
"Step : 0.010000",
"Channel_info_end",
"Channel_info_start",
"Channel : V ",
"Points : 0",
"Range : 0.000000 - 0.000000",
"Step : 0.010000",
"Channel_info_end",
"Channel_info_start",
"Channel : Cr",
"Points : 0",
"Range : 0.000000 - 0.000000",
"Step : 0.010000",
"Channel_info_end",
"Channel_info_start",
"Channel : Mn",
"Points : 0",
"Range : 0.000000 - 0.000000",
"Step : 0.010000",
"Channel_info_end",
"Channel_info_start",
"Channel : Fe",
"Points : 0",
"Range : 0.000000 - 0.000000",
"Step : 0.010000",
"Channel_info_end",
"Channel_info_start",
"Channel : Cu",
"Points : 0",
"Range : 0.000000 - 0.000000",
"Step : 0.010000",
"Channel_info_end",
"Channel_info_start",
"Channel : Zn",
"Points : 0",
"Range : 0.000000 - 0.000000",
"Step : 0.010000",
"Channel_info_end",
"Channel_info_start",
"Channel : Sr",
"Points : 0",
"Range : 0.000000 - 0.000000",
"Step : 0.010000",
"Channel_info_end",
"Channel_info_start",
"Channel : Pb",
"Points : 0",
"Range : 0.000000 - 0.000000",
"Step : 0.010000",
"Channel_info_end",
"",
"Qualitative Result",
"--------------------------------------------------------------------------------",
"Element :  Pb, S , Cl, Ca, Ir, Ru",
"",
"Peak List",
"--------------------------------------------------------------------------------",
"Channel               Line        keV     Net Int.(cps/uA)",
"--------------------------------------------------------------------------------",
"Na                    ----         0.60     0.028",
"                      ----         0.69     0.023",
"                      ----         1.84     0.101",
"                      PbMa         2.37     1.212",
"                      S Ka         2.37     0.514",
"                      ClKa         2.66     0.149",
"                      ----         3.13     0.071",
"                      CaKa         3.68     0.162",
"                      CaKb         4.04     0.017",
"                      PbLL         9.18     0.269",
"                      IrLa         9.18     0.105",
"                      PbLa        10.54     6.736",
"                      IrLb1       10.71     0.058",
"                      PbLn        11.34     0.090",
"                      PbLb4       12.24     0.150",
"                      PbLb1       12.60     4.500",
"                      PbLg1       14.76     0.664",
"                      PbLg2       15.15     0.184",
"                      RuKa        19.18     0.135",
"                      ----        19.45     0.062",
"                      ----        20.00     0.138",
"--------------------------------------------------------------------------------",
"",
"Quantitative Result",
"--------------------------------------------------------------------------------",
"Analyte               Result             Std.Dev. Proc.-Calc. Line Intensity(cps/uA)",
"--------------------------------------------------------------------------------",
"====[No. 1 Layer]====< Layer1               >===============================",
"Layer1                   0.000 ug/cm2    -------- Flux       -------- --------",

File: Pb 31519.20100611041141.csv
"Sample    : Pb 31519",
"Operator  : Luís",
"Comment  : cubatao-g-policarbonato",
"Group     : kerr2007ag180cal_lt",
"Date       : 2010-06-11 04:07:37",
"",
"Mesurement Condition",
"------------------------------------------------------------------------------------",
"Instrument : 700HS2   Atmosphere : Vac.   Collimator : 10(mm)   Spin : No",
"------------------------------------------------------------------------------------",
"Analyte               TG kV   uA      FI Acq.(keV)  Anal.(keV)  Time(sec)     DT(%)",
"------------------------------------------------------------------------------------",
"Na                    Rh 50  168-Auto Al  0 - 20    0.8 - 1.2   Live -  180   15",
"",
"<Profile>",
"Channel_info_start",
"Channel : Na",
"Points : 2048",
"Range : 0.000000 - 20.48",
"Step : 0.010000",
"Channel_info_end",
"0",
"0",
"0",
"0",
"0",
"34",
"18",
"37",
"59",
"107",
"84",
"50",
"27",
"30",
"37",
"37",
"26",
"25",
"22",
"32",
"24",
"28",
"57",
"40",
"58",
"112",
"312",
"215",
"135",
"166",
"179",
"303",
"497",
"2893",
"4273",
"3565",
"1241",
"362",
"453",
"226",
"80",
"67",
"53",
"105",
"164",
"163",
"65",
"20",
"34",
"23",
"36",
"61",
"263",
"341",
"115",
"41",
"33",
"67",
"58",
"29",
"35",
"25",
"30",
"25",
"40",
"55",
"42",
"49",
"45",
"38",
"45",
"45",
"48",
"58",
"32",
"54",
"47",
"53",
"35",
"49",
"65",
"47",
"49",
"57",
"53",
"68",
"72",
"54",
"75",
"100",
"99",
"108",
"99",
"90",
"92",
"103",
"88",
"95",
"92",
"111",
"102",
"96",
"78",
"80",
"104",
"96",
"102",
"119",
"85",
"96",
"91",
"83",
"88",
"114",
"134",
"136",
"100",
"103",
"109",
"98",
"122",
"101",
"137",
"132",
"114",
"110",
"117",
"113",
"136",
"230",
"522",
"694",
"580",
"257",
"163",
"109",
"125",
"102",
"107",
"102",
"101",
"124",
"117",
"121",
"128",
"130",
"182",
"503",
"1939",
"5780",
"9834",
"10453",
"5529",
"1706",
"361",
"141",
"112",
"117",
"114",
"144",
"137",
"212",
"221",
"214",
"129",
"111",
"108",
"95",
"90",
"99",
"89",
"136",
"204",
"325",
"422",
"544",
"575",
"909",
"2526",
"5623",
"7418",
"5905",
"2839",
"1260",
"574",
"468",
"360",
"301",
"191",
"125",
"102",
"107",
"87",
"77",
"68",
"71",
"66",
"67",
"51",
"63",
"62",
"73",
"79",
"89",
"128",
"101",
"94",
"129",
"279",
"600",
"969",
"1057",
"691",
"358",
"247",
"288",
"379",
"329",
"234",
"142",
"85",
"64",
"55",
"73",
"83",
"92",
"71",
"67",
"65",
"48",
"52",
"39",
"55",
"41",
"66",
"42",
"47",
"50",
"51",
"47",
"54",
"38",
"34",
"48",
"39",
"61",
"37",
"52",
"35",
"47",
"49",
"48",
"50",
"40",
"49",
"37",
"49",
"50",
"49",
"46",
"48",
"65",
"53",
"58",
"62",
"74",
"67",
"73",
"82",
"135",
"150",
"195",
"233",
"264",
"260",
"257",
"222",
"189",
"150",
"114",
"91",
"74",
"78",
"103",
"121",
"198",
"222",
"281",
"233",
"144",
"72",
"54",
"49",
"21770",
"Channel_info_start",
"Channel : Mg",
"Points : 0",
"Range : 0.000000 - 0.000000",
"Step : 0.010000",
"Channel_info_end",
"Channel_info_start",
"Channel : Al",
"Points : 0",
"Range : 0.000000 - 0.000000",
"Step : 0.010000",
"Channel_info_end",
"Channel_info_start",
"Channel : Si",
"Points : 0",
"Range : 0.000000 - 0.000000",
"Step : 0.010000",
"Channel_info_end",
"Channel_info_start",
"Channel : P ",
"Points : 0",
"Range : 0.000000 - 0.000000",
"Step : 0.010000",
"Channel_info_end",
"Channel_info_start",
"Channel : S ",
"Points : 0",
"Range : 0.000000 - 0.000000",
"Step : 0.010000",
"Channel_info_end",
"Channel_info_start",
"Channel : Cl",
"Points : 0",
"Range : 0.000000 - 0.000000",
"Step : 0.010000",
"Channel_info_end",
"Channel_info_start",
"Channel : K ",
"Points : 0",
"Range : 0.000000 - 0.000000",
"Step : 0.010000",
"Channel_info_end",
"Channel_info_start",
"Channel : Ca",
"Points : 0",
"Range : 0.000000 - 0.000000",
"Step : 0.010000",
"Channel_info_end",
"Channel_info_start",
"Channel : Ti",
"Points : 0",
"Range : 0.000000 - 0.000000",
"Step : 0.010000",
"Channel_info_end",
"Channel_info_start",
"Channel : V ",
"Points : 0",
"Range : 0.000000 - 0.000000",
"Step : 0.010000",
"Channel_info_end",
"Channel_info_start",
"Channel : Cr",
"Points : 0",
"Range : 0.000000 - 0.000000",
"Step : 0.010000",
"Channel_info_end",
"Channel_info_start",
"Channel : Mn",
"Points : 0",
"Range : 0.000000 - 0.000000",
"Step : 0.010000",
"Channel_info_end",
"Channel_info_start",
"Channel : Fe",
"Points : 0",
"Range : 0.000000 - 0.000000",
"Step : 0.010000",
"Channel_info_end",
"Channel_info_start",
"Channel : Cu",
"Points : 0",
"Range : 0.000000 - 0.000000",
"Step : 0.010000",
"Channel_info_end",
"Channel_info_start",
"Channel : Zn",
"Points : 0",
"Range : 0.000000 - 0.000000",
"Step : 0.010000",
"Channel_info_end",
"Channel_info_start",
"Channel : Sr",
"Points : 0",
"Range : 0.000000 - 0.000000",
"Step : 0.010000",
"Channel_info_end",
"Channel_info_start",
"Channel : Pb",
"Points : 0",
"Range : 0.000000 - 0.000000",
"Step : 0.010000",
"Channel_info_end",
"",
"Qualitative Result",
"--------------------------------------------------------------------------------",
"Element :  Pb, S , Cl, Ca, Ir, Ru",
"",
"Peak List",
"--------------------------------------------------------------------------------",
"Channel               Line        keV     Net Int.(cps/uA)",
"--------------------------------------------------------------------------------",
"Na                    ----         0.60     0.028",
"                      ----         1.83     0.091",
"                      PbMa         2.36     1.197",
"                      S Ka         2.36     0.554",
"                      ClKa         2.66     0.146",
"                      ----         3.12     0.069",
"                      CaKa         3.68     0.168",
"                      CaKb         4.02     0.022",
"                      PbLL         9.17     0.266",
"                      IrLa         9.17     0.099",
"                      PbLa        10.54     6.649",
"                      IrLb1       10.71     0.054",
"                      PbLn        11.32     0.096",
"                      PbLb4       12.24     0.165",
"                      PbLb1       12.60     4.670",
"                      IrLg3       13.03     0.093",
"                      PbLg1       14.72     0.661",
"                      PbLg2       15.13     0.192",
"                      RuKa        19.19     0.147",
"                      ----        20.00     0.147",
"--------------------------------------------------------------------------------",
"",
"Quantitative Result",
"--------------------------------------------------------------------------------",
"Analyte               Result             Std.Dev. Proc.-Calc. Line Intensity(cps/uA)",
"--------------------------------------------------------------------------------",
"====[No. 1 Layer]====< Layer1               >===============================",
"Layer1                   0.000 ug/cm2    -------- Flux       -------- --------",