Folder: mestrado_ifusp/inputs/edxCalibration/edx_raw/2010/junho (part 15)

File: Se 31505.20100611012624.csv
"Sample    : Se 31505",
"Operator  : Luís",
"Comment  : cubatao-g-policarbonato",
"Group     : kerr2007ag180cal_lt",
"Date       : 2010-06-11 01:22:22",
"",
"Mesurement Condition",
"------------------------------------------------------------------------------------",
"Instrument : 700HS2   Atmosphere : Vac.   Collimator : 10(mm)   Spin : No",
"------------------------------------------------------------------------------------",
"Analyte               TG kV   uA      FI Acq.(keV)  Anal.(keV)  Time(sec)     DT(%)",
"------------------------------------------------------------------------------------",
"Na                    Rh 50  237-Auto Al  0 - 20    0.8 - 1.2   Live -  179   15",
"",
"<Profile>",
"Channel_info_start",
"Channel : Na",
"Points : 2048",
"Range : 0.000000 - 20.48",
"Step : 0.010000",
"Channel_info_end",
"0",
"0",
"0",
"0",
"0",
"22",
"17",
"27",
"30",
"25",
"16",
"25",
"26",
"24",
"29",
"39",
"37",
"33",
"28",
"53",
"113",
"527",
"426",
"155",
"52",
"46",
"24",
"35",
"56",
"68",
"23",
"23",
"31",
"35",
"40",
"41",
"95",
"59",
"31",
"34",
"37",
"49",
"53",
"33",
"31",
"48",
"38",
"34",
"26",
"42",
"40",
"133",
"440",
"689",
"461",
"306",
"142",
"150",
"192",
"421",
"2609",
"6981",
"4224",
"769",
"385",
"2130",
"4430",
"3230",
"1101",
"535",
"1011",
"1048",
"354",
"148",
"255",
"647",
"486",
"196",
"189",
"336",
"282",
"130",
"88",
"68",
"57",
"55",
"56",
"69",
"87",
"100",
"86",
"99",
"95",
"103",
"116",
"124",
"119",
"124",
"138",
"131",
"110",
"108",
"79",
"87",
"98",
"93",
"82",
"101",
"89",
"106",
"94",
"108",
"85",
"125",
"106",
"124",
"126",
"124",
"116",
"107",
"108",
"111",
"144",
"181",
"145",
"145",
"108",
"101",
"107",
"131",
"112",
"129",
"125",
"116",
"115",
"101",
"94",
"100",
"103",
"97",
"107",
"86",
"102",
"95",
"86",
"112",
"101",
"91",
"91",
"115",
"113",
"104",
"92",
"94",
"89",
"106",
"123",
"113",
"114",
"111",
"125",
"101",
"114",
"129",
"140",
"149",
"281",
"1173",
"4218",
"9333",
"11217",
"8391",
"3486",
"793",
"166",
"112",
"114",
"100",
"105",
"99",
"108",
"100",
"100",
"101",
"129",
"116",
"165",
"411",
"924",
"1638",
"1712",
"1184",
"617",
"278",
"151",
"102",
"75",
"76",
"80",
"68",
"64",
"61",
"61",
"76",
"73",
"64",
"63",
"69",
"71",
"71",
"65",
"79",
"67",
"79",
"50",
"69",
"65",
"66",
"72",
"61",
"65",
"56",
"54",
"76",
"66",
"48",
"60",
"56",
"57",
"57",
"79",
"72",
"73",
"51",
"59",
"46",
"61",
"55",
"55",
"64",
"62",
"60",
"61",
"59",
"46",
"44",
"64",
"63",
"62",
"57",
"56",
"66",
"51",
"51",
"66",
"54",
"67",
"71",
"59",
"73",
"72",
"72",
"74",
"63",
"89",
"63",
"86",
"108",
"140",
"145",
"225",
"274",
"340",
"344",
"382",
"358",
"316",
"279",
"195",
"162",
"132",
"111",
"79",
"93",
"126",
"181",
"209",
"242",
"212",
"143",
"75",
"59",
"41",
"37686",
"Channel_info_start",
"Channel : Mg",
"Points : 0",
"Range : 0.000000 - 0.000000",
"Step : 0.010000",
"Channel_info_end",
"Channel_info_start",
"Channel : Al",
"Points : 0",
"Range : 0.000000 - 0.000000",
"Step : 0.010000",
"Channel_info_end",
"Channel_info_start",
"Channel : Si",
"Points : 0",
"Range : 0.000000 - 0.000000",
"Step : 0.010000",
"Channel_info_end",
"Channel_info_start",
"Channel : P ",
"Points : 0",
"Range : 0.000000 - 0.000000",
"Step : 0.010000",
"Channel_info_end",
"Channel_info_start",
"Channel : S ",
"Points : 0",
"Range : 0.000000 - 0.000000",
"Step : 0.010000",
"Channel_info_end",
"Channel_info_start",
"Channel : Cl",
"Points : 0",
"Range : 0.000000 - 0.000000",
"Step : 0.010000",
"Channel_info_end",
"Channel_info_start",
"Channel : K ",
"Points : 0",
"Range : 0.000000 - 0.000000",
"Step : 0.010000",
"Channel_info_end",
"Channel_info_start",
"Channel : Ca",
"Points : 0",
"Range : 0.000000 - 0.000000",
"Step : 0.010000",
"Channel_info_end",
"Channel_info_start",
"Channel : Ti",
"Points : 0",
"Range : 0.000000 - 0.000000",
"Step : 0.010000",
"Channel_info_end",
"Channel_info_start",
"Channel : V ",
"Points : 0",
"Range : 0.000000 - 0.000000",
"Step : 0.010000",
"Channel_info_end",
"Channel_info_start",
"Channel : Cr",
"Points : 0",
"Range : 0.000000 - 0.000000",
"Step : 0.010000",
"Channel_info_end",
"Channel_info_start",
"Channel : Mn",
"Points : 0",
"Range : 0.000000 - 0.000000",
"Step : 0.010000",
"Channel_info_end",
"Channel_info_start",
"Channel : Fe",
"Points : 0",
"Range : 0.000000 - 0.000000",
"Step : 0.010000",
"Channel_info_end",
"Channel_info_start",
"Channel : Cu",
"Points : 0",
"Range : 0.000000 - 0.000000",
"Step : 0.010000",
"Channel_info_end",
"Channel_info_start",
"Channel : Zn",
"Points : 0",
"Range : 0.000000 - 0.000000",
"Step : 0.010000",
"Channel_info_end",
"Channel_info_start",
"Channel : Sr",
"Points : 0",
"Range : 0.000000 - 0.000000",
"Step : 0.010000",
"Channel_info_end",
"Channel_info_start",
"Channel : Pb",
"Points : 0",
"Range : 0.000000 - 0.000000",
"Step : 0.010000",
"Channel_info_end",
"",
"Qualitative Result",
"--------------------------------------------------------------------------------",
"Element :  Br, Cs, Ce, Rh",
"",
"Peak List",
"--------------------------------------------------------------------------------",
"Channel               Line        keV     Net Int.(cps/uA)",
"--------------------------------------------------------------------------------",
"Na                    BrLa         1.50     0.160",
"                      CsLaESC      2.52     0.019",
"                      ----         3.70     0.187",
"                      CsLa         4.28     2.360",
"                      CsLb1        4.63     1.519",
"                      CsLb2        4.94     0.347",
"                      CsLg1        5.26     0.142",
"                      CeLb1        5.26     0.040",
"                      CsLg2        5.54     0.089",
"                      BrKa        11.88     5.244",
"                      BrKb        13.26     0.810",
"                      RhKaC       19.16     0.138",
"                      ----        19.40     0.076",
"                      RhKa        20.08     0.094",
"--------------------------------------------------------------------------------",
"",
"Quantitative Result",
"--------------------------------------------------------------------------------",
"Analyte               Result             Std.Dev. Proc.-Calc. Line Intensity(cps/uA)",
"--------------------------------------------------------------------------------",
"====[No. 1 Layer]====< Layer1               >===============================",
"Layer1                   0.000 ug/cm2    -------- Flux       -------- --------",

File: Sg 15767.20100611031957.csv
"Sample    : Sg 15767",
"Operator  : Luís",
"Comment  : cubatao-g-policarbonato",
"Group     : kerr2007ag180cal_lt",
"Date       : 2010-06-11 03:15:44",
"",
"Mesurement Condition",
"------------------------------------------------------------------------------------",
"Instrument : 700HS2   Atmosphere : Vac.   Collimator : 10(mm)   Spin : No",
"------------------------------------------------------------------------------------",
"Analyte               TG kV   uA      FI Acq.(keV)  Anal.(keV)  Time(sec)     DT(%)",
"------------------------------------------------------------------------------------",
"Na                    Rh 50  393-Auto Al  0 - 20    0.8 - 1.2   Live -  180   15",
"",
"<Profile>",
"Channel_info_start",
"Channel : Na",
"Points : 2048",
"Range : 0.000000 - 20.48",
"Step : 0.010000",
"Channel_info_end",
"0",
"0",
"0",
"0",
"0",
"49",
"54",
"47",
"41",
"56",
"33",
"29",
"33",
"34",
"33",
"47",
"45",
"51",
"55",
"49",
"50",
"60",
"64",
"67",
"78",
"90",
"190",
"177",
"121",
"143",
"157",
"112",
"86",
"60",
"68",
"55",
"59",
"58",
"69",
"80",
"75",
"80",
"99",
"98",
"177",
"563",
"656",
"281",
"297",
"539",
"2496",
"11768",
"11659",
"3588",
"4197",
"9065",
"6059",
"2387",
"1791",
"1741",
"641",
"569",
"1002",
"608",
"287",
"645",
"662",
"266",
"104",
"66",
"64",
"54",
"66",
"81",
"83",
"107",
"88",
"70",
"71",
"86",
"74",
"76",
"107",
"150",
"136",
"150",
"162",
"204",
"129",
"162",
"169",
"154",
"156",
"143",
"123",
"136",
"154",
"167",
"132",
"164",
"192",
"141",
"174",
"186",
"183",
"197",
"165",
"202",
"199",
"234",
"234",
"234",
"228",
"214",
"240",
"214",
"217",
"187",
"158",
"163",
"139",
"182",
"206",
"248",
"191",
"165",
"193",
"182",
"192",
"217",
"164",
"204",
"191",
"186",
"188",
"205",
"167",
"169",
"155",
"171",
"180",
"161",
"142",
"168",
"159",
"156",
"167",
"164",
"158",
"193",
"157",
"163",
"164",
"207",
"176",
"185",
"153",
"173",
"155",
"147",
"165",
"142",
"130",
"176",
"150",
"163",
"144",
"169",
"175",
"154",
"157",
"170",
"143",
"142",
"144",
"149",
"130",
"149",
"143",
"144",
"138",
"116",
"141",
"132",
"144",
"120",
"132",
"114",
"151",
"143",
"131",
"143",
"141",
"142",
"134",
"145",
"127",
"107",
"115",
"126",
"151",
"123",
"110",
"120",
"124",
"96",
"90",
"99",
"123",
"115",
"103",
"108",
"103",
"108",
"112",
"111",
"114",
"108",
"112",
"104",
"106",
"120",
"96",
"115",
"90",
"91",
"87",
"98",
"84",
"91",
"100",
"100",
"97",
"117",
"100",
"95",
"100",
"105",
"106",
"108",
"111",
"97",
"119",
"111",
"94",
"104",
"76",
"119",
"106",
"110",
"115",
"100",
"99",
"96",
"91",
"118",
"119",
"98",
"108",
"99",
"100",
"118",
"124",
"122",
"140",
"128",
"145",
"182",
"239",
"259",
"343",
"460",
"547",
"528",
"561",
"586",
"510",
"450",
"349",
"242",
"200",
"166",
"110",
"179",
"209",
"304",
"382",
"395",
"359",
"246",
"143",
"111",
"93",
"126776",
"Channel_info_start",
"Channel : Mg",
"Points : 0",
"Range : 0.000000 - 0.000000",
"Step : 0.010000",
"Channel_info_end",
"Channel_info_start",
"Channel : Al",
"Points : 0",
"Range : 0.000000 - 0.000000",
"Step : 0.010000",
"Channel_info_end",
"Channel_info_start",
"Channel : Si",
"Points : 0",
"Range : 0.000000 - 0.000000",
"Step : 0.010000",
"Channel_info_end",
"Channel_info_start",
"Channel : P ",
"Points : 0",
"Range : 0.000000 - 0.000000",
"Step : 0.010000",
"Channel_info_end",
"Channel_info_start",
"Channel : S ",
"Points : 0",
"Range : 0.000000 - 0.000000",
"Step : 0.010000",
"Channel_info_end",
"Channel_info_start",
"Channel : Cl",
"Points : 0",
"Range : 0.000000 - 0.000000",
"Step : 0.010000",
"Channel_info_end",
"Channel_info_start",
"Channel : K ",
"Points : 0",
"Range : 0.000000 - 0.000000",
"Step : 0.010000",
"Channel_info_end",
"Channel_info_start",
"Channel : Ca",
"Points : 0",
"Range : 0.000000 - 0.000000",
"Step : 0.010000",
"Channel_info_end",
"Channel_info_start",
"Channel : Ti",
"Points : 0",
"Range : 0.000000 - 0.000000",
"Step : 0.010000",
"Channel_info_end",
"Channel_info_start",
"Channel : V ",
"Points : 0",
"Range : 0.000000 - 0.000000",
"Step : 0.010000",
"Channel_info_end",
"Channel_info_start",
"Channel : Cr",
"Points : 0",
"Range : 0.000000 - 0.000000",
"Step : 0.010000",
"Channel_info_end",
"Channel_info_start",
"Channel : Mn",
"Points : 0",
"Range : 0.000000 - 0.000000",
"Step : 0.010000",
"Channel_info_end",
"Channel_info_start",
"Channel : Fe",
"Points : 0",
"Range : 0.000000 - 0.000000",
"Step : 0.010000",
"Channel_info_end",
"Channel_info_start",
"Channel : Cu",
"Points : 0",
"Range : 0.000000 - 0.000000",
"Step : 0.010000",
"Channel_info_end",
"Channel_info_start",
"Channel : Zn",
"Points : 0",
"Range : 0.000000 - 0.000000",
"Step : 0.010000",
"Channel_info_end",
"Channel_info_start",
"Channel : Sr",
"Points : 0",
"Range : 0.000000 - 0.000000",
"Step : 0.010000",
"Channel_info_end",
"Channel_info_start",
"Channel : Pb",
"Points : 0",
"Range : 0.000000 - 0.000000",
"Step : 0.010000",
"Channel_info_end",
"",
"Qualitative Result",
"--------------------------------------------------------------------------------",
"Element :  Sb, Ru",
"",
"Peak List",
"--------------------------------------------------------------------------------",
"Channel               Line        keV     Net Int.(cps/uA)",
"--------------------------------------------------------------------------------",
"Na                    SbLaESC      1.85     0.026",
"                      ----         2.10     0.017",
"                      SbLL         3.20     0.093",
"                      SbLa         3.60     2.661",
"                      SbLb1        3.86     1.640",
"                      SbLb2        4.12     0.275",
"                      SbLg1        4.34     0.123",
"                      SbLg2        4.60     0.106",
"                      RuKa        19.16     0.140",
"--------------------------------------------------------------------------------",
"",
"Quantitative Result",
"--------------------------------------------------------------------------------",
"Analyte               Result             Std.Dev. Proc.-Calc. Line Intensity(cps/uA)",
"--------------------------------------------------------------------------------",
"====[No. 1 Layer]====< Layer1               >===============================",
"Layer1                   0.000 ug/cm2    -------- Flux       -------- --------",

File: SiO 15752.20100525201952.csv
"Sample    : SiO 15752",
"Operator  : thiago",
"Comment  : cubatao-g-policarbonato",
"Group     : kerr2007ag180cal_lt",
"Date       : 2010-05-25 20:15:41",
"",
"Mesurement Condition",
"------------------------------------------------------------------------------------",
"Instrument : 700HS2   Atmosphere : Vac.   Collimator : 10(mm)   Spin : No",
"------------------------------------------------------------------------------------",
"Analyte               TG kV   uA      FI Acq.(keV)  Anal.(keV)  Time(sec)     DT(%)",
"------------------------------------------------------------------------------------",
"Na                    Rh 50  970-Auto Al  0 - 20    0.8 - 1.2   Live -  180   15",
"",
"<Profile>",
"Channel_info_start",
"Channel : Na",
"Points : 2048",
"Range : 0.000000 - 20.48",
"Step : 0.010000",
"Channel_info_end",
"0",
"0",
"0",
"0",
"1",
"52",
"43",
"45",
"50",
"39",
"53",
"53",
"43",
"48",
"42",
"38",
"52",
"49",
"54",
"45",
"62",
"93",
"103",
"248",
"3106",
"6817",
"1697",
"246",
"144",
"194",
"78",
"44",
"41",
"40",
"39",
"44",
"31",
"35",
"40",
"43",
"53",
"55",
"38",
"41",
"27",
"35",
"57",
"50",
"51",
"51",
"63",
"350",
"1594",
"1960",
"709",
"205",
"209",
"363",
"287",
"144",
"88",
"90",
"102",
"137",
"163",
"182",
"199",
"181",
"160",
"133",
"143",
"139",
"123",
"149",
"147",
"147",
"161",
"167",
"170",
"174",
"169",
"216",
"178",
"224",
"207",
"260",
"240",
"268",
"248",
"304",
"297",
"342",
"321",
"289",
"318",
"343",
"337",
"328",
"317",
"347",
"346",
"319",
"304",
"345",
"281",
"293",
"278",
"329",
"320",
"310",
"296",
"334",
"359",
"383",
"384",
"426",
"382",
"331",
"315",
"383",
"325",
"375",
"441",
"507",
"461",
"382",
"312",
"340",
"338",
"370",
"301",
"345",
"318",
"321",
"285",
"339",
"342",
"358",
"330",
"350",
"326",
"332",
"302",
"340",
"316",
"286",
"339",
"342",
"293",
"317",
"305",
"311",
"304",
"333",
"296",
"313",
"297",
"339",
"297",
"311",
"353",
"357",
"313",
"315",
"314",
"275",
"276",
"308",
"310",
"307",
"312",
"289",
"290",
"274",
"291",
"303",
"302",
"266",
"292",
"294",
"293",
"275",
"285",
"276",
"259",
"279",
"250",
"268",
"253",
"261",
"266",
"263",
"265",
"276",
"236",
"264",
"265",
"235",
"261",
"271",
"242",
"259",
"270",
"234",
"248",
"261",
"222",
"248",
"226",
"268",
"231",
"216",
"264",
"234",
"187",
"244",
"208",
"208",
"225",
"253",
"212",
"233",
"174",
"201",
"216",
"250",
"200",
"219",
"239",
"212",
"213",
"246",
"202",
"188",
"192",
"201",
"221",
"191",
"196",
"197",
"218",
"191",
"172",
"184",
"188",
"196",
"201",
"173",
"213",
"179",
"184",
"211",
"198",
"195",
"197",
"200",
"244",
"213",
"209",
"218",
"244",
"235",
"237",
"279",
"276",
"319",
"329",
"388",
"501",
"670",
"820",
"1012",
"1257",
"1384",
"1469",
"1478",
"1270",
"1024",
"790",
"638",
"512",
"372",
"305",
"312",
"347",
"421",
"516",
"539",
"521",
"379",
"264",
"209",
"179",
"97842",
"Channel_info_start",
"Channel : Mg",
"Points : 0",
"Range : 0.000000 - 0.000000",
"Step : 0.010000",
"Channel_info_end",
"Channel_info_start",
"Channel : Al",
"Points : 0",
"Range : 0.000000 - 0.000000",
"Step : 0.010000",
"Channel_info_end",
"Channel_info_start",
"Channel : Si",
"Points : 0",
"Range : 0.000000 - 0.000000",
"Step : 0.010000",
"Channel_info_end",
"Channel_info_start",
"Channel : P ",
"Points : 0",
"Range : 0.000000 - 0.000000",
"Step : 0.010000",
"Channel_info_end",
"Channel_info_start",
"Channel : S ",
"Points : 0",
"Range : 0.000000 - 0.000000",
"Step : 0.010000",
"Channel_info_end",
"Channel_info_start",
"Channel : Cl",
"Points : 0",
"Range : 0.000000 - 0.000000",
"Step : 0.010000",
"Channel_info_end",
"Channel_info_start",
"Channel : K ",
"Points : 0",
"Range : 0.000000 - 0.000000",
"Step : 0.010000",
"Channel_info_end",
"Channel_info_start",
"Channel : Ca",
"Points : 0",
"Range : 0.000000 - 0.000000",
"Step : 0.010000",
"Channel_info_end",
"Channel_info_start",
"Channel : Ti",
"Points : 0",
"Range : 0.000000 - 0.000000",
"Step : 0.010000",
"Channel_info_end",
"Channel_info_start",
"Channel : V ",
"Points : 0",
"Range : 0.000000 - 0.000000",
"Step : 0.010000",
"Channel_info_end",
"Channel_info_start",
"Channel : Cr",
"Points : 0",
"Range : 0.000000 - 0.000000",
"Step : 0.010000",
"Channel_info_end",
"Channel_info_start",
"Channel : Mn",
"Points : 0",
"Range : 0.000000 - 0.000000",
"Step : 0.010000",
"Channel_info_end",
"Channel_info_start",
"Channel : Fe",
"Points : 0",
"Range : 0.000000 - 0.000000",
"Step : 0.010000",
"Channel_info_end",
"Channel_info_start",
"Channel : Cu",
"Points : 0",
"Range : 0.000000 - 0.000000",
"Step : 0.010000",
"Channel_info_end",
"Channel_info_start",
"Channel : Zn",
"Points : 0",
"Range : 0.000000 - 0.000000",
"Step : 0.010000",
"Channel_info_end",
"Channel_info_start",
"Channel : Sr",
"Points : 0",
"Range : 0.000000 - 0.000000",
"Step : 0.010000",
"Channel_info_end",
"Channel_info_start",
"Channel : Pb",
"Points : 0",
"Range : 0.000000 - 0.000000",
"Step : 0.010000",
"Channel_info_end",
"",
"Qualitative Result",
"--------------------------------------------------------------------------------",
"Element :  Si, P , Ca, Ti, Zn, Ru",
"",
"Peak List",
"--------------------------------------------------------------------------------",
"Channel               Line        keV     Net Int.(cps/uA)",
"--------------------------------------------------------------------------------",
"Na                    SiKa         1.74     0.444",
"                      P Ka         2.00     0.010",
"                      CaKa         3.68     0.170",
"                      CaKb         4.03     0.021",
"                      TiKa         4.45     0.006",
"                      ----         4.63     0.007",
"                      ZnKa         8.68     0.015",
"                      RuKa        19.16     0.132",
"                      ----        19.44     0.066",
"                      ----        20.04     0.041",
"--------------------------------------------------------------------------------",
"",
"Quantitative Result",
"--------------------------------------------------------------------------------",
"Analyte               Result             Std.Dev. Proc.-Calc. Line Intensity(cps/uA)",
"--------------------------------------------------------------------------------",
"====[No. 1 Layer]====< Layer1               >===============================",
"Layer1                   0.000 ug/cm2    -------- Flux       -------- --------",

File: SiO 31493.20100525202401.csv
"Sample    : SiO 31493",
"Operator  : thiago",
"Comment  : cubatao-g-policarbonato",
"Group     : kerr2007ag180cal_lt",
"Date       : 2010-05-25 20:19:51",
"",
"Mesurement Condition",
"------------------------------------------------------------------------------------",
"Instrument : 700HS2   Atmosphere : Vac.   Collimator : 10(mm)   Spin : No",
"------------------------------------------------------------------------------------",
"Analyte               TG kV   uA      FI Acq.(keV)  Anal.(keV)  Time(sec)     DT(%)",
"------------------------------------------------------------------------------------",
"Na                    Rh 50  970-Auto Al  0 - 20    0.8 - 1.2   Live -  179   15",
"",
"<Profile>",
"Channel_info_start",
"Channel : Na",
"Points : 2048",
"Range : 0.000000 - 20.48",
"Step : 0.010000",
"Channel_info_end",
"0",
"0",
"0",
"0",
"1",
"47",
"43",
"61",
"46",
"57",
"34",
"51",
"34",
"44",
"42",
"52",
"51",
"41",
"49",
"50",
"69",
"81",
"93",
"229",
"3326",
"7177",
"1765",
"241",
"227",
"268",
"84",
"50",
"40",
"28",
"25",
"28",
"25",
"36",
"40",
"46",
"57",
"44",
"44",
"35",
"37",
"52",
"41",
"59",
"54",
"57",
"87",
"453",
"2426",
"3400",
"1102",
"209",
"225",
"476",
"323",
"159",
"62",
"80",
"124",
"155",
"170",
"170",
"176",
"156",
"171",
"131",
"130",
"165",
"139",
"144",
"138",
"149",
"124",
"190",
"156",
"166",
"156",
"169",
"178",
"196",
"242",
"228",
"199",
"229",
"229",
"285",
"289",
"329",
"308",
"305",
"280",
"325",
"319",
"334",
"312",
"330",
"359",
"327",
"294",
"278",
"333",
"307",
"295",
"307",
"290",
"322",
"302",
"340",
"354",
"347",
"377",
"418",
"360",
"359",
"349",
"330",
"311",
"355",
"436",
"532",
"466",
"344",
"334",
"349",
"360",
"350",
"328",
"299",
"329",
"321",
"291",
"323",
"328",
"359",
"311",
"334",
"327",
"313",
"293",
"323",
"315",
"312",
"305",
"341",
"287",
"313",
"300",
"309",
"292",
"293",
"302",
"284",
"312",
"332",
"278",
"320",
"292",
"306",
"304",
"310",
"300",
"319",
"255",
"331",
"284",
"302",
"285",
"333",
"272",
"285",
"254",
"286",
"278",
"302",
"260",
"283",
"309",
"253",
"258",
"285",
"260",
"274",
"264",
"214",
"267",
"277",
"227",
"261",
"249",
"264",
"225",
"230",
"234",
"279",
"247",
"251",
"240",
"241",
"219",
"244",
"235",
"246",
"222",
"230",
"232",
"227",
"216",
"231",
"241",
"240",
"244",
"210",
"217",
"196",
"206",
"223",
"229",
"191",
"221",
"214",
"205",
"221",
"208",
"229",
"203",
"226",
"191",
"191",
"191",
"212",
"190",
"187",
"223",
"189",
"194",
"210",
"208",
"202",
"196",
"189",
"196",
"192",
"213",
"203",
"207",
"197",
"180",
"163",
"206",
"222",
"181",
"192",
"230",
"215",
"213",
"223",
"228",
"219",
"208",
"271",
"313",
"304",
"316",
"405",
"475",
"610",
"776",
"1020",
"1303",
"1410",
"1410",
"1432",
"1183",
"1046",
"801",
"668",
"466",
"384",
"312",
"299",
"343",
"409",
"504",
"535",
"509",
"334",
"238",
"175",
"185",
"95971",
"Channel_info_start",
"Channel : Mg",
"Points : 0",
"Range : 0.000000 - 0.000000",
"Step : 0.010000",
"Channel_info_end",
"Channel_info_start",
"Channel : Al",
"Points : 0",
"Range : 0.000000 - 0.000000",
"Step : 0.010000",
"Channel_info_end",
"Channel_info_start",
"Channel : Si",
"Points : 0",
"Range : 0.000000 - 0.000000",
"Step : 0.010000",
"Channel_info_end",
"Channel_info_start",
"Channel : P ",
"Points : 0",
"Range : 0.000000 - 0.000000",
"Step : 0.010000",
"Channel_info_end",
"Channel_info_start",
"Channel : S ",
"Points : 0",
"Range : 0.000000 - 0.000000",
"Step : 0.010000",
"Channel_info_end",
"Channel_info_start",
"Channel : Cl",
"Points : 0",
"Range : 0.000000 - 0.000000",
"Step : 0.010000",
"Channel_info_end",
"Channel_info_start",
"Channel : K ",
"Points : 0",
"Range : 0.000000 - 0.000000",
"Step : 0.010000",
"Channel_info_end",
"Channel_info_start",
"Channel : Ca",
"Points : 0",
"Range : 0.000000 - 0.000000",
"Step : 0.010000",
"Channel_info_end",
"Channel_info_start",
"Channel : Ti",
"Points : 0",
"Range : 0.000000 - 0.000000",
"Step : 0.010000",
"Channel_info_end",
"Channel_info_start",
"Channel : V ",
"Points : 0",
"Range : 0.000000 - 0.000000",
"Step : 0.010000",
"Channel_info_end",
"Channel_info_start",
"Channel : Cr",
"Points : 0",
"Range : 0.000000 - 0.000000",
"Step : 0.010000",
"Channel_info_end",
"Channel_info_start",
"Channel : Mn",
"Points : 0",
"Range : 0.000000 - 0.000000",
"Step : 0.010000",
"Channel_info_end",
"Channel_info_start",
"Channel : Fe",
"Points : 0",
"Range : 0.000000 - 0.000000",
"Step : 0.010000",
"Channel_info_end",
"Channel_info_start",
"Channel : Cu",
"Points : 0",
"Range : 0.000000 - 0.000000",
"Step : 0.010000",
"Channel_info_end",
"Channel_info_start",
"Channel : Zn",
"Points : 0",
"Range : 0.000000 - 0.000000",
"Step : 0.010000",
"Channel_info_end",
"Channel_info_start",
"Channel : Sr",
"Points : 0",
"Range : 0.000000 - 0.000000",
"Step : 0.010000",
"Channel_info_end",
"Channel_info_start",
"Channel : Pb",
"Points : 0",
"Range : 0.000000 - 0.000000",
"Step : 0.010000",
"Channel_info_end",
"",
"Qualitative Result",
"--------------------------------------------------------------------------------",
"Element :  Si, P , Ca",
"",
"Peak List",
"--------------------------------------------------------------------------------",
"Channel               Line        keV     Net Int.(cps/uA)",
"--------------------------------------------------------------------------------",
"Na                    SiKa         1.74     0.471",
"                      P Ka         2.01     0.018",
"                      CaKa         3.68     0.282",
"                      CaKb         4.01     0.035",
"                      ----         4.64     0.007",
"                      ----         8.60     0.019",
"                      ----        19.12     0.129",
"                      ----        19.43     0.069",
"                      ----        20.04     0.042",
"--------------------------------------------------------------------------------",
"",
"Quantitative Result",
"--------------------------------------------------------------------------------",
"Analyte               Result             Std.Dev. Proc.-Calc. Line Intensity(cps/uA)",
"--------------------------------------------------------------------------------",
"====[No. 1 Layer]====< Layer1               >===============================",
"Layer1                   0.000 ug/cm2    -------- Flux       -------- --------",