Folder: mestrado_ifusp/inputs/edxCalibration/edx_raw/2010/junho (part 9)

File: Mg15751.20100611003947.csv
"Sample    : Mg15751",
"Operator  : thiago",
"Comment  : cubatao-g-policarbonato",
"Group     : kerr2007ag180cal_lt",
"Date       : 2010-06-11 00:35:38",
"",
"Mesurement Condition",
"------------------------------------------------------------------------------------",
"Instrument : 700HS2   Atmosphere : Vac.   Collimator : 10(mm)   Spin : No",
"------------------------------------------------------------------------------------",
"Analyte               TG kV   uA      FI Acq.(keV)  Anal.(keV)  Time(sec)     DT(%)",
"------------------------------------------------------------------------------------",
"Na                    Rh 50  970-Auto Al  0 - 20    0.8 - 1.2   Live -  179   14",
"",
"<Profile>",
"Channel_info_start",
"Channel : Na",
"Points : 2048",
"Range : 0.000000 - 20.48",
"Step : 0.010000",
"Channel_info_end",
"0",
"0",
"0",
"0",
"1",
"52",
"43",
"40",
"42",
"52",
"34",
"40",
"48",
"40",
"33",
"65",
"119",
"727",
"1766",
"530",
"58",
"67",
"26",
"37",
"32",
"59",
"53",
"48",
"122",
"172",
"76",
"44",
"34",
"34",
"28",
"37",
"41",
"27",
"50",
"50",
"41",
"54",
"30",
"48",
"44",
"43",
"43",
"43",
"51",
"50",
"81",
"387",
"1517",
"2055",
"694",
"190",
"225",
"348",
"252",
"111",
"71",
"97",
"128",
"119",
"163",
"183",
"173",
"171",
"150",
"140",
"140",
"134",
"134",
"198",
"157",
"163",
"175",
"192",
"171",
"173",
"164",
"201",
"204",
"234",
"224",
"221",
"249",
"238",
"236",
"227",
"289",
"305",
"283",
"298",
"301",
"343",
"302",
"304",
"326",
"322",
"322",
"335",
"338",
"316",
"322",
"317",
"333",
"338",
"300",
"357",
"356",
"367",
"363",
"421",
"400",
"442",
"368",
"332",
"317",
"334",
"344",
"363",
"387",
"485",
"506",
"364",
"375",
"353",
"348",
"366",
"317",
"292",
"337",
"305",
"326",
"338",
"340",
"320",
"304",
"330",
"312",
"323",
"333",
"331",
"293",
"364",
"316",
"329",
"320",
"364",
"280",
"320",
"302",
"334",
"287",
"331",
"334",
"329",
"309",
"319",
"337",
"312",
"302",
"316",
"288",
"301",
"301",
"297",
"362",
"305",
"286",
"307",
"286",
"294",
"279",
"292",
"278",
"306",
"260",
"288",
"286",
"284",
"254",
"296",
"281",
"294",
"278",
"293",
"281",
"277",
"253",
"267",
"256",
"275",
"255",
"298",
"273",
"268",
"283",
"268",
"248",
"272",
"253",
"263",
"250",
"256",
"215",
"261",
"253",
"256",
"251",
"253",
"223",
"259",
"222",
"238",
"209",
"248",
"217",
"246",
"240",
"252",
"234",
"234",
"218",
"263",
"198",
"220",
"221",
"235",
"212",
"217",
"229",
"199",
"219",
"223",
"193",
"213",
"197",
"211",
"224",
"203",
"193",
"229",
"196",
"183",
"197",
"242",
"224",
"189",
"203",
"186",
"217",
"218",
"197",
"200",
"234",
"203",
"200",
"212",
"240",
"236",
"235",
"283",
"278",
"343",
"339",
"412",
"498",
"656",
"799",
"1127",
"1325",
"1359",
"1472",
"1456",
"1285",
"1059",
"795",
"659",
"474",
"397",
"323",
"337",
"356",
"442",
"561",
"579",
"551",
"402",
"259",
"235",
"176",
"100377",
"Channel_info_start",
"Channel : Mg",
"Points : 0",
"Range : 0.000000 - 0.000000",
"Step : 0.010000",
"Channel_info_end",
"Channel_info_start",
"Channel : Al",
"Points : 0",
"Range : 0.000000 - 0.000000",
"Step : 0.010000",
"Channel_info_end",
"Channel_info_start",
"Channel : Si",
"Points : 0",
"Range : 0.000000 - 0.000000",
"Step : 0.010000",
"Channel_info_end",
"Channel_info_start",
"Channel : P ",
"Points : 0",
"Range : 0.000000 - 0.000000",
"Step : 0.010000",
"Channel_info_end",
"Channel_info_start",
"Channel : S ",
"Points : 0",
"Range : 0.000000 - 0.000000",
"Step : 0.010000",
"Channel_info_end",
"Channel_info_start",
"Channel : Cl",
"Points : 0",
"Range : 0.000000 - 0.000000",
"Step : 0.010000",
"Channel_info_end",
"Channel_info_start",
"Channel : K ",
"Points : 0",
"Range : 0.000000 - 0.000000",
"Step : 0.010000",
"Channel_info_end",
"Channel_info_start",
"Channel : Ca",
"Points : 0",
"Range : 0.000000 - 0.000000",
"Step : 0.010000",
"Channel_info_end",
"Channel_info_start",
"Channel : Ti",
"Points : 0",
"Range : 0.000000 - 0.000000",
"Step : 0.010000",
"Channel_info_end",
"Channel_info_start",
"Channel : V ",
"Points : 0",
"Range : 0.000000 - 0.000000",
"Step : 0.010000",
"Channel_info_end",
"Channel_info_start",
"Channel : Cr",
"Points : 0",
"Range : 0.000000 - 0.000000",
"Step : 0.010000",
"Channel_info_end",
"Channel_info_start",
"Channel : Mn",
"Points : 0",
"Range : 0.000000 - 0.000000",
"Step : 0.010000",
"Channel_info_end",
"Channel_info_start",
"Channel : Fe",
"Points : 0",
"Range : 0.000000 - 0.000000",
"Step : 0.010000",
"Channel_info_end",
"Channel_info_start",
"Channel : Cu",
"Points : 0",
"Range : 0.000000 - 0.000000",
"Step : 0.010000",
"Channel_info_end",
"Channel_info_start",
"Channel : Zn",
"Points : 0",
"Range : 0.000000 - 0.000000",
"Step : 0.010000",
"Channel_info_end",
"Channel_info_start",
"Channel : Sr",
"Points : 0",
"Range : 0.000000 - 0.000000",
"Step : 0.010000",
"Channel_info_end",
"Channel_info_start",
"Channel : Pb",
"Points : 0",
"Range : 0.000000 - 0.000000",
"Step : 0.010000",
"Channel_info_end",
"",
"Qualitative Result",
"--------------------------------------------------------------------------------",
"Element :  Mg, P , Ca, Ru",
"",
"Peak List",
"--------------------------------------------------------------------------------",
"Channel               Line        keV     Net Int.(cps/uA)",
"--------------------------------------------------------------------------------",
"Na                    MgKa         1.26     0.113",
"                      P Ka         2.01     0.012",
"                      CaKa         3.68     0.168",
"                      CaKb         4.00     0.021",
"                      ----         8.64     0.019",
"                      RuKa        19.19     0.133",
"                      ----        19.41     0.070",
"--------------------------------------------------------------------------------",
"",
"Quantitative Result",
"--------------------------------------------------------------------------------",
"Analyte               Result             Std.Dev. Proc.-Calc. Line Intensity(cps/uA)",
"--------------------------------------------------------------------------------",
"====[No. 1 Layer]====< Layer1               >===============================",
"Layer1                   0.000 ug/cm2    -------- Flux       -------- --------",

File: Mg 31491.20100611003539.csv
"Sample    : Mg 31491",
"Operator  : thiago",
"Comment  : cubatao-g-policarbonato",
"Group     : kerr2007ag180cal_lt",
"Date       : 2010-06-11 00:31:30",
"",
"Mesurement Condition",
"------------------------------------------------------------------------------------",
"Instrument : 700HS2   Atmosphere : Vac.   Collimator : 10(mm)   Spin : No",
"------------------------------------------------------------------------------------",
"Analyte               TG kV   uA      FI Acq.(keV)  Anal.(keV)  Time(sec)     DT(%)",
"------------------------------------------------------------------------------------",
"Na                    Rh 50  970-Auto Al  0 - 20    0.8 - 1.2   Live -  179   14",
"",
"<Profile>",
"Channel_info_start",
"Channel : Na",
"Points : 2048",
"Range : 0.000000 - 20.48",
"Step : 0.010000",
"Channel_info_end",
"0",
"0",
"0",
"0",
"1",
"42",
"50",
"45",
"32",
"44",
"49",
"32",
"28",
"30",
"43",
"39",
"38",
"91",
"176",
"81",
"36",
"40",
"30",
"46",
"95",
"159",
"84",
"82",
"221",
"279",
"110",
"36",
"43",
"46",
"38",
"29",
"28",
"43",
"49",
"40",
"38",
"52",
"40",
"38",
"29",
"54",
"52",
"41",
"54",
"62",
"97",
"575",
"2536",
"3507",
"1157",
"221",
"259",
"563",
"354",
"162",
"73",
"94",
"119",
"156",
"213",
"203",
"186",
"182",
"168",
"140",
"125",
"139",
"153",
"132",
"128",
"148",
"161",
"199",
"179",
"204",
"196",
"207",
"221",
"245",
"242",
"222",
"213",
"220",
"265",
"257",
"277",
"313",
"287",
"251",
"311",
"292",
"288",
"343",
"302",
"327",
"349",
"327",
"324",
"329",
"323",
"300",
"290",
"336",
"282",
"314",
"305",
"314",
"332",
"357",
"474",
"788",
"980",
"849",
"494",
"373",
"335",
"425",
"453",
"573",
"462",
"394",
"374",
"373",
"324",
"343",
"328",
"452",
"555",
"785",
"635",
"514",
"476",
"477",
"426",
"395",
"314",
"333",
"282",
"320",
"314",
"295",
"327",
"295",
"325",
"287",
"259",
"300",
"317",
"326",
"342",
"374",
"361",
"322",
"286",
"289",
"344",
"292",
"297",
"325",
"288",
"303",
"281",
"300",
"286",
"303",
"270",
"295",
"290",
"297",
"272",
"300",
"301",
"267",
"289",
"261",
"303",
"287",
"253",
"292",
"288",
"285",
"232",
"296",
"264",
"263",
"268",
"222",
"258",
"258",
"248",
"284",
"257",
"276",
"240",
"291",
"259",
"272",
"247",
"263",
"236",
"258",
"245",
"248",
"237",
"231",
"208",
"222",
"207",
"243",
"223",
"222",
"223",
"224",
"216",
"222",
"222",
"229",
"209",
"218",
"250",
"232",
"196",
"207",
"209",
"231",
"187",
"209",
"246",
"173",
"182",
"216",
"190",
"202",
"210",
"188",
"206",
"169",
"205",
"197",
"192",
"190",
"186",
"212",
"215",
"183",
"191",
"201",
"210",
"228",
"201",
"189",
"236",
"244",
"209",
"193",
"212",
"240",
"269",
"277",
"289",
"300",
"349",
"400",
"522",
"647",
"792",
"1068",
"1280",
"1366",
"1419",
"1438",
"1263",
"969",
"777",
"642",
"466",
"370",
"319",
"310",
"367",
"475",
"536",
"589",
"477",
"373",
"261",
"197",
"167",
"96485",
"Channel_info_start",
"Channel : Mg",
"Points : 0",
"Range : 0.000000 - 0.000000",
"Step : 0.010000",
"Channel_info_end",
"Channel_info_start",
"Channel : Al",
"Points : 0",
"Range : 0.000000 - 0.000000",
"Step : 0.010000",
"Channel_info_end",
"Channel_info_start",
"Channel : Si",
"Points : 0",
"Range : 0.000000 - 0.000000",
"Step : 0.010000",
"Channel_info_end",
"Channel_info_start",
"Channel : P ",
"Points : 0",
"Range : 0.000000 - 0.000000",
"Step : 0.010000",
"Channel_info_end",
"Channel_info_start",
"Channel : S ",
"Points : 0",
"Range : 0.000000 - 0.000000",
"Step : 0.010000",
"Channel_info_end",
"Channel_info_start",
"Channel : Cl",
"Points : 0",
"Range : 0.000000 - 0.000000",
"Step : 0.010000",
"Channel_info_end",
"Channel_info_start",
"Channel : K ",
"Points : 0",
"Range : 0.000000 - 0.000000",
"Step : 0.010000",
"Channel_info_end",
"Channel_info_start",
"Channel : Ca",
"Points : 0",
"Range : 0.000000 - 0.000000",
"Step : 0.010000",
"Channel_info_end",
"Channel_info_start",
"Channel : Ti",
"Points : 0",
"Range : 0.000000 - 0.000000",
"Step : 0.010000",
"Channel_info_end",
"Channel_info_start",
"Channel : V ",
"Points : 0",
"Range : 0.000000 - 0.000000",
"Step : 0.010000",
"Channel_info_end",
"Channel_info_start",
"Channel : Cr",
"Points : 0",
"Range : 0.000000 - 0.000000",
"Step : 0.010000",
"Channel_info_end",
"Channel_info_start",
"Channel : Mn",
"Points : 0",
"Range : 0.000000 - 0.000000",
"Step : 0.010000",
"Channel_info_end",
"Channel_info_start",
"Channel : Fe",
"Points : 0",
"Range : 0.000000 - 0.000000",
"Step : 0.010000",
"Channel_info_end",
"Channel_info_start",
"Channel : Cu",
"Points : 0",
"Range : 0.000000 - 0.000000",
"Step : 0.010000",
"Channel_info_end",
"Channel_info_start",
"Channel : Zn",
"Points : 0",
"Range : 0.000000 - 0.000000",
"Step : 0.010000",
"Channel_info_end",
"Channel_info_start",
"Channel : Sr",
"Points : 0",
"Range : 0.000000 - 0.000000",
"Step : 0.010000",
"Channel_info_end",
"Channel_info_start",
"Channel : Pb",
"Points : 0",
"Range : 0.000000 - 0.000000",
"Step : 0.010000",
"Channel_info_end",
"",
"Qualitative Result",
"--------------------------------------------------------------------------------",
"Element :  Mg, Si, P , Ca, Zn, Ru",
"",
"Peak List",
"--------------------------------------------------------------------------------",
"Channel               Line        keV     Net Int.(cps/uA)",
"--------------------------------------------------------------------------------",
"Na                    MgKa         1.25     0.008",
"                      SiKa         1.75     0.007",
"                      P Ka         2.00     0.023",
"                      CaKa         3.68     0.287",
"                      CaKb         4.00     0.038",
"                      ----         4.57     0.009",
"                      ----         8.13     0.068",
"                      ZnKa         8.66     0.017",
"                      ----         9.34     0.043",
"                      ZnKb         9.62     0.019",
"                      RuKa        19.17     0.132",
"                      ----        19.45     0.057",
"                      ----        19.94     0.020",
"--------------------------------------------------------------------------------",
"",
"Quantitative Result",
"--------------------------------------------------------------------------------",
"Analyte               Result             Std.Dev. Proc.-Calc. Line Intensity(cps/uA)",
"--------------------------------------------------------------------------------",
"====[No. 1 Layer]====< Layer1               >===============================",
"Layer1                   0.000 ug/cm2    -------- Flux       -------- --------",

File: MoO3 15764.20100525234538.csv
"Sample    : MoO3 15764",
"Operator  : luisf",
"Comment  : cubatao-g-policarbonato",
"Group     : kerr2007ag180cal_lt",
"Date       : 2010-05-25 23:41:36",
"",
"Mesurement Condition",
"------------------------------------------------------------------------------------",
"Instrument : 700HS2   Atmosphere : Vac.   Collimator : 10(mm)   Spin : No",
"------------------------------------------------------------------------------------",
"Analyte               TG kV   uA      FI Acq.(keV)  Anal.(keV)  Time(sec)     DT(%)",
"------------------------------------------------------------------------------------",
"Na                    Rh 50  210-Auto Al  0 - 20    0.8 - 1.2   Live -  179   14",
"",
"<Profile>",
"Channel_info_start",
"Channel : Na",
"Points : 2048",
"Range : 0.000000 - 20.48",
"Step : 0.010000",
"Channel_info_end",
"0",
"0",
"0",
"0",
"1",
"37",
"44",
"56",
"74",
"72",
"68",
"39",
"42",
"61",
"56",
"70",
"50",
"45",
"43",
"41",
"26",
"38",
"26",
"33",
"34",
"36",
"53",
"74",
"185",
"280",
"179",
"251",
"1453",
"2882",
"1794",
"1122",
"418",
"132",
"79",
"47",
"55",
"47",
"36",
"30",
"18",
"16",
"18",
"22",
"31",
"18",
"33",
"94",
"362",
"443",
"132",
"54",
"45",
"82",
"61",
"33",
"24",
"23",
"43",
"43",
"60",
"55",
"51",
"66",
"43",
"46",
"41",
"53",
"50",
"55",
"42",
"40",
"42",
"48",
"56",
"53",
"45",
"58",
"47",
"65",
"71",
"51",
"57",
"72",
"62",
"80",
"74",
"83",
"70",
"82",
"76",
"85",
"87",
"85",
"86",
"88",
"89",
"85",
"76",
"84",
"73",
"81",
"88",
"90",
"110",
"82",
"73",
"97",
"93",
"93",
"112",
"153",
"108",
"93",
"76",
"100",
"86",
"97",
"104",
"120",
"120",
"113",
"86",
"90",
"96",
"78",
"96",
"75",
"84",
"81",
"79",
"81",
"90",
"98",
"98",
"92",
"81",
"78",
"79",
"94",
"86",
"101",
"81",
"79",
"75",
"69",
"74",
"89",
"79",
"87",
"69",
"69",
"96",
"57",
"71",
"80",
"83",
"71",
"96",
"80",
"82",
"83",
"62",
"71",
"83",
"70",
"88",
"70",
"68",
"87",
"74",
"68",
"86",
"55",
"96",
"95",
"86",
"69",
"75",
"83",
"59",
"75",
"74",
"64",
"54",
"68",
"65",
"74",
"76",
"82",
"65",
"71",
"72",
"75",
"47",
"60",
"70",
"78",
"64",
"66",
"70",
"69",
"58",
"69",
"72",
"67",
"67",
"59",
"75",
"62",
"69",
"75",
"54",
"57",
"67",
"68",
"55",
"69",
"60",
"83",
"62",
"45",
"61",
"39",
"72",
"68",
"74",
"54",
"72",
"59",
"68",
"75",
"72",
"79",
"78",
"97",
"90",
"114",
"96",
"156",
"385",
"1185",
"3095",
"6742",
"10487",
"12249",
"10101",
"6472",
"2683",
"870",
"265",
"106",
"62",
"66",
"68",
"62",
"64",
"60",
"57",
"75",
"78",
"89",
"90",
"117",
"120",
"140",
"192",
"235",
"298",
"318",
"375",
"387",
"553",
"900",
"1481",
"2068",
"2153",
"1615",
"991",
"626",
"522",
"433",
"308",
"228",
"130",
"88",
"68",
"58",
"50",
"22782",
"Channel_info_start",
"Channel : Mg",
"Points : 0",
"Range : 0.000000 - 0.000000",
"Step : 0.010000",
"Channel_info_end",
"Channel_info_start",
"Channel : Al",
"Points : 0",
"Range : 0.000000 - 0.000000",
"Step : 0.010000",
"Channel_info_end",
"Channel_info_start",
"Channel : Si",
"Points : 0",
"Range : 0.000000 - 0.000000",
"Step : 0.010000",
"Channel_info_end",
"Channel_info_start",
"Channel : P ",
"Points : 0",
"Range : 0.000000 - 0.000000",
"Step : 0.010000",
"Channel_info_end",
"Channel_info_start",
"Channel : S ",
"Points : 0",
"Range : 0.000000 - 0.000000",
"Step : 0.010000",
"Channel_info_end",
"Channel_info_start",
"Channel : Cl",
"Points : 0",
"Range : 0.000000 - 0.000000",
"Step : 0.010000",
"Channel_info_end",
"Channel_info_start",
"Channel : K ",
"Points : 0",
"Range : 0.000000 - 0.000000",
"Step : 0.010000",
"Channel_info_end",
"Channel_info_start",
"Channel : Ca",
"Points : 0",
"Range : 0.000000 - 0.000000",
"Step : 0.010000",
"Channel_info_end",
"Channel_info_start",
"Channel : Ti",
"Points : 0",
"Range : 0.000000 - 0.000000",
"Step : 0.010000",
"Channel_info_end",
"Channel_info_start",
"Channel : V ",
"Points : 0",
"Range : 0.000000 - 0.000000",
"Step : 0.010000",
"Channel_info_end",
"Channel_info_start",
"Channel : Cr",
"Points : 0",
"Range : 0.000000 - 0.000000",
"Step : 0.010000",
"Channel_info_end",
"Channel_info_start",
"Channel : Mn",
"Points : 0",
"Range : 0.000000 - 0.000000",
"Step : 0.010000",
"Channel_info_end",
"Channel_info_start",
"Channel : Fe",
"Points : 0",
"Range : 0.000000 - 0.000000",
"Step : 0.010000",
"Channel_info_end",
"Channel_info_start",
"Channel : Cu",
"Points : 0",
"Range : 0.000000 - 0.000000",
"Step : 0.010000",
"Channel_info_end",
"Channel_info_start",
"Channel : Zn",
"Points : 0",
"Range : 0.000000 - 0.000000",
"Step : 0.010000",
"Channel_info_end",
"Channel_info_start",
"Channel : Sr",
"Points : 0",
"Range : 0.000000 - 0.000000",
"Step : 0.010000",
"Channel_info_end",
"Channel_info_start",
"Channel : Pb",
"Points : 0",
"Range : 0.000000 - 0.000000",
"Step : 0.010000",
"Channel_info_end",
"",
"Qualitative Result",
"--------------------------------------------------------------------------------",
"Element :  P , Mo, Ca",
"",
"Peak List",
"--------------------------------------------------------------------------------",
"Channel               Line        keV     Net Int.(cps/uA)",
"--------------------------------------------------------------------------------",
"Na                    ----         0.54     0.013",
"                      P Ka         2.02     0.061",
"                      MoLa         2.30     0.900",
"                      CaKa         3.68     0.162",
"                      CaKb         4.00     0.022",
"                      MoKa        17.42     6.988",
"                      MoKb        19.59     1.135",
"                      ----        19.97     0.130",
"--------------------------------------------------------------------------------",
"",
"Quantitative Result",
"--------------------------------------------------------------------------------",
"Analyte               Result             Std.Dev. Proc.-Calc. Line Intensity(cps/uA)",
"--------------------------------------------------------------------------------",
"====[No. 1 Layer]====< Layer1               >===============================",
"Layer1                   0.000 ug/cm2    -------- Flux       -------- --------",

File: MoO3 15764.20100611022302.csv
"Sample    : MoO3 15764",
"Operator  : Luís",
"Comment  : cubatao-g-policarbonato",
"Group     : kerr2007ag180cal_lt",
"Date       : 2010-06-11 02:19:00",
"",
"Mesurement Condition",
"------------------------------------------------------------------------------------",
"Instrument : 700HS2   Atmosphere : Vac.   Collimator : 10(mm)   Spin : No",
"------------------------------------------------------------------------------------",
"Analyte               TG kV   uA      FI Acq.(keV)  Anal.(keV)  Time(sec)     DT(%)",
"------------------------------------------------------------------------------------",
"Na                    Rh 50  210-Auto Al  0 - 20    0.8 - 1.2   Live -  179   14",
"",
"<Profile>",
"Channel_info_start",
"Channel : Na",
"Points : 2048",
"Range : 0.000000 - 20.48",
"Step : 0.010000",
"Channel_info_end",
"0",
"0",
"0",
"0",
"0",
"43",
"44",
"70",
"90",
"98",
"64",
"40",
"54",
"51",
"62",
"52",
"55",
"48",
"44",
"44",
"45",
"39",
"27",
"31",
"43",
"45",
"51",
"72",
"170",
"265",
"177",
"279",
"1435",
"2887",
"1759",
"1061",
"430",
"149",
"65",
"39",
"69",
"62",
"20",
"17",
"19",
"23",
"16",
"36",
"29",
"18",
"19",
"87",
"362",
"473",
"150",
"60",
"53",
"84",
"86",
"26",
"39",
"22",
"40",
"51",
"60",
"52",
"68",
"53",
"65",
"44",
"44",
"45",
"32",
"56",
"40",
"45",
"50",
"57",
"51",
"52",
"48",
"65",
"59",
"64",
"59",
"65",
"59",
"79",
"68",
"59",
"67",
"66",
"74",
"102",
"80",
"84",
"103",
"74",
"92",
"78",
"78",
"101",
"86",
"114",
"82",
"82",
"96",
"80",
"80",
"87",
"99",
"90",
"109",
"101",
"134",
"136",
"100",
"86",
"82",
"86",
"83",
"101",
"114",
"141",
"130",
"107",
"93",
"76",
"89",
"112",
"86",
"88",
"94",
"100",
"106",
"120",
"93",
"94",
"79",
"98",
"95",
"85",
"92",
"84",
"79",
"93",
"79",
"87",
"89",
"84",
"74",
"79",
"82",
"81",
"66",
"80",
"88",
"79",
"83",
"90",
"76",
"92",
"87",
"73",
"78",
"81",
"73",
"95",
"84",
"84",
"64",
"100",
"66",
"68",
"75",
"68",
"62",
"83",
"62",
"64",
"72",
"66",
"55",
"74",
"66",
"69",
"72",
"58",
"78",
"62",
"72",
"64",
"58",
"80",
"66",
"56",
"64",
"72",
"65",
"85",
"69",
"65",
"55",
"65",
"57",
"48",
"52",
"72",
"82",
"53",
"53",
"46",
"67",
"55",
"61",
"55",
"70",
"55",
"53",
"62",
"71",
"54",
"48",
"47",
"53",
"80",
"62",
"61",
"59",
"71",
"64",
"70",
"78",
"59",
"56",
"71",
"79",
"68",
"74",
"88",
"68",
"90",
"122",
"160",
"418",
"1289",
"3399",
"7564",
"11286",
"12327",
"9700",
"5957",
"2492",
"740",
"211",
"96",
"79",
"66",
"60",
"72",
"58",
"52",
"60",
"79",
"89",
"78",
"83",
"122",
"141",
"148",
"202",
"270",
"286",
"335",
"363",
"389",
"564",
"950",
"1528",
"2167",
"2111",
"1521",
"906",
"602",
"498",
"447",
"303",
"226",
"154",
"95",
"78",
"60",
"31",
"22698",
"Channel_info_start",
"Channel : Mg",
"Points : 0",
"Range : 0.000000 - 0.000000",
"Step : 0.010000",
"Channel_info_end",
"Channel_info_start",
"Channel : Al",
"Points : 0",
"Range : 0.000000 - 0.000000",
"Step : 0.010000",
"Channel_info_end",
"Channel_info_start",
"Channel : Si",
"Points : 0",
"Range : 0.000000 - 0.000000",
"Step : 0.010000",
"Channel_info_end",
"Channel_info_start",
"Channel : P ",
"Points : 0",
"Range : 0.000000 - 0.000000",
"Step : 0.010000",
"Channel_info_end",
"Channel_info_start",
"Channel : S ",
"Points : 0",
"Range : 0.000000 - 0.000000",
"Step : 0.010000",
"Channel_info_end",
"Channel_info_start",
"Channel : Cl",
"Points : 0",
"Range : 0.000000 - 0.000000",
"Step : 0.010000",
"Channel_info_end",
"Channel_info_start",
"Channel : K ",
"Points : 0",
"Range : 0.000000 - 0.000000",
"Step : 0.010000",
"Channel_info_end",
"Channel_info_start",
"Channel : Ca",
"Points : 0",
"Range : 0.000000 - 0.000000",
"Step : 0.010000",
"Channel_info_end",
"Channel_info_start",
"Channel : Ti",
"Points : 0",
"Range : 0.000000 - 0.000000",
"Step : 0.010000",
"Channel_info_end",
"Channel_info_start",
"Channel : V ",
"Points : 0",
"Range : 0.000000 - 0.000000",
"Step : 0.010000",
"Channel_info_end",
"Channel_info_start",
"Channel : Cr",
"Points : 0",
"Range : 0.000000 - 0.000000",
"Step : 0.010000",
"Channel_info_end",
"Channel_info_start",
"Channel : Mn",
"Points : 0",
"Range : 0.000000 - 0.000000",
"Step : 0.010000",
"Channel_info_end",
"Channel_info_start",
"Channel : Fe",
"Points : 0",
"Range : 0.000000 - 0.000000",
"Step : 0.010000",
"Channel_info_end",
"Channel_info_start",
"Channel : Cu",
"Points : 0",
"Range : 0.000000 - 0.000000",
"Step : 0.010000",
"Channel_info_end",
"Channel_info_start",
"Channel : Zn",
"Points : 0",
"Range : 0.000000 - 0.000000",
"Step : 0.010000",
"Channel_info_end",
"Channel_info_start",
"Channel : Sr",
"Points : 0",
"Range : 0.000000 - 0.000000",
"Step : 0.010000",
"Channel_info_end",
"Channel_info_start",
"Channel : Pb",
"Points : 0",
"Range : 0.000000 - 0.000000",
"Step : 0.010000",
"Channel_info_end",
"",
"Qualitative Result",
"--------------------------------------------------------------------------------",
"Element :  P , Mo, Ca",
"",
"Peak List",
"--------------------------------------------------------------------------------",
"Channel               Line        keV     Net Int.(cps/uA)",
"--------------------------------------------------------------------------------",
"Na                    ----         0.55     0.015",
"                      ----         0.64     0.015",
"                      P Ka         2.02     0.062",
"                      MoLa         2.30     0.914",
"                      ----         2.43     0.401",
"                      CaKa         3.68     0.165",
"                      CaKb         4.02     0.020",
"                      MoKa        17.44     7.004",
"                      MoKb        19.53     1.120",
"                      ----        19.93     0.160",
"--------------------------------------------------------------------------------",
"",
"Quantitative Result",
"--------------------------------------------------------------------------------",
"Analyte               Result             Std.Dev. Proc.-Calc. Line Intensity(cps/uA)",
"--------------------------------------------------------------------------------",
"====[No. 1 Layer]====< Layer1               >===============================",
"Layer1                   0.000 ug/cm2    -------- Flux       -------- --------",