Folder: mestrado_ifusp/inputs/edxCalibration/edx_raw/2010/junho (part 4)

File: Bi 15773.20100611040738.csv
"Sample    : Bi 15773",
"Operator  : Luís",
"Comment  : cubatao-g-policarbonato",
"Group     : kerr2007ag180cal_lt",
"Date       : 2010-06-11 04:03:37",
"",
"Mesurement Condition",
"------------------------------------------------------------------------------------",
"Instrument : 700HS2   Atmosphere : Vac.   Collimator : 10(mm)   Spin : No",
"------------------------------------------------------------------------------------",
"Analyte               TG kV   uA      FI Acq.(keV)  Anal.(keV)  Time(sec)     DT(%)",
"------------------------------------------------------------------------------------",
"Na                    Rh 50  168-Auto Al  0 - 20    0.8 - 1.2   Live -  179   14",
"",
"<Profile>",
"Channel_info_start",
"Channel : Na",
"Points : 2048",
"Range : 0.000000 - 20.48",
"Step : 0.010000",
"Channel_info_end",
"0",
"0",
"0",
"0",
"0",
"21",
"24",
"27",
"25",
"52",
"92",
"79",
"60",
"19",
"44",
"28",
"28",
"31",
"24",
"22",
"31",
"32",
"16",
"30",
"54",
"38",
"111",
"322",
"213",
"159",
"136",
"184",
"255",
"431",
"2143",
"4068",
"3210",
"1563",
"321",
"445",
"262",
"77",
"62",
"87",
"53",
"113",
"146",
"103",
"37",
"26",
"23",
"103",
"428",
"578",
"187",
"67",
"68",
"118",
"76",
"43",
"23",
"25",
"30",
"30",
"43",
"36",
"38",
"41",
"36",
"36",
"27",
"38",
"40",
"50",
"35",
"48",
"30",
"41",
"46",
"42",
"65",
"92",
"64",
"77",
"60",
"57",
"49",
"68",
"80",
"73",
"66",
"86",
"78",
"73",
"79",
"74",
"72",
"81",
"64",
"68",
"68",
"83",
"90",
"71",
"86",
"85",
"82",
"84",
"87",
"105",
"92",
"84",
"100",
"86",
"93",
"128",
"86",
"91",
"78",
"91",
"67",
"90",
"113",
"139",
"124",
"109",
"86",
"119",
"106",
"116",
"82",
"113",
"187",
"328",
"623",
"635",
"336",
"153",
"117",
"98",
"108",
"97",
"79",
"76",
"79",
"104",
"105",
"101",
"90",
"107",
"153",
"479",
"1611",
"4664",
"8371",
"9093",
"5286",
"1735",
"397",
"177",
"116",
"108",
"108",
"96",
"97",
"149",
"195",
"239",
"205",
"141",
"72",
"80",
"81",
"84",
"79",
"108",
"137",
"179",
"267",
"316",
"412",
"493",
"593",
"1304",
"3188",
"5874",
"5779",
"4171",
"1965",
"864",
"511",
"420",
"331",
"190",
"121",
"93",
"84",
"77",
"64",
"74",
"87",
"57",
"54",
"54",
"68",
"60",
"62",
"68",
"68",
"95",
"93",
"90",
"80",
"91",
"112",
"297",
"599",
"920",
"873",
"629",
"313",
"252",
"255",
"325",
"324",
"241",
"149",
"86",
"66",
"56",
"71",
"64",
"78",
"82",
"58",
"59",
"44",
"39",
"43",
"39",
"38",
"40",
"49",
"43",
"50",
"49",
"39",
"54",
"41",
"35",
"53",
"44",
"44",
"49",
"35",
"48",
"56",
"50",
"38",
"50",
"49",
"37",
"49",
"59",
"60",
"66",
"59",
"91",
"96",
"112",
"132",
"180",
"229",
"217",
"260",
"267",
"207",
"172",
"139",
"114",
"92",
"71",
"63",
"80",
"107",
"170",
"218",
"233",
"234",
"130",
"67",
"54",
"42",
"20951",
"Channel_info_start",
"Channel : Mg",
"Points : 0",
"Range : 0.000000 - 0.000000",
"Step : 0.010000",
"Channel_info_end",
"Channel_info_start",
"Channel : Al",
"Points : 0",
"Range : 0.000000 - 0.000000",
"Step : 0.010000",
"Channel_info_end",
"Channel_info_start",
"Channel : Si",
"Points : 0",
"Range : 0.000000 - 0.000000",
"Step : 0.010000",
"Channel_info_end",
"Channel_info_start",
"Channel : P ",
"Points : 0",
"Range : 0.000000 - 0.000000",
"Step : 0.010000",
"Channel_info_end",
"Channel_info_start",
"Channel : S ",
"Points : 0",
"Range : 0.000000 - 0.000000",
"Step : 0.010000",
"Channel_info_end",
"Channel_info_start",
"Channel : Cl",
"Points : 0",
"Range : 0.000000 - 0.000000",
"Step : 0.010000",
"Channel_info_end",
"Channel_info_start",
"Channel : K ",
"Points : 0",
"Range : 0.000000 - 0.000000",
"Step : 0.010000",
"Channel_info_end",
"Channel_info_start",
"Channel : Ca",
"Points : 0",
"Range : 0.000000 - 0.000000",
"Step : 0.010000",
"Channel_info_end",
"Channel_info_start",
"Channel : Ti",
"Points : 0",
"Range : 0.000000 - 0.000000",
"Step : 0.010000",
"Channel_info_end",
"Channel_info_start",
"Channel : V ",
"Points : 0",
"Range : 0.000000 - 0.000000",
"Step : 0.010000",
"Channel_info_end",
"Channel_info_start",
"Channel : Cr",
"Points : 0",
"Range : 0.000000 - 0.000000",
"Step : 0.010000",
"Channel_info_end",
"Channel_info_start",
"Channel : Mn",
"Points : 0",
"Range : 0.000000 - 0.000000",
"Step : 0.010000",
"Channel_info_end",
"Channel_info_start",
"Channel : Fe",
"Points : 0",
"Range : 0.000000 - 0.000000",
"Step : 0.010000",
"Channel_info_end",
"Channel_info_start",
"Channel : Cu",
"Points : 0",
"Range : 0.000000 - 0.000000",
"Step : 0.010000",
"Channel_info_end",
"Channel_info_start",
"Channel : Zn",
"Points : 0",
"Range : 0.000000 - 0.000000",
"Step : 0.010000",
"Channel_info_end",
"Channel_info_start",
"Channel : Sr",
"Points : 0",
"Range : 0.000000 - 0.000000",
"Step : 0.010000",
"Channel_info_end",
"Channel_info_start",
"Channel : Pb",
"Points : 0",
"Range : 0.000000 - 0.000000",
"Step : 0.010000",
"Channel_info_end",
"",
"Qualitative Result",
"--------------------------------------------------------------------------------",
"Element :  Bi, Ru, Ca, Rb",
"",
"Peak List",
"--------------------------------------------------------------------------------",
"Channel               Line        keV     Net Int.(cps/uA)",
"--------------------------------------------------------------------------------",
"Na                    ----         0.68     0.020",
"                      ----         0.80     0.016",
"                      ----         1.90     0.089",
"                      ----         2.20     0.044",
"                      BiMa         2.44     1.649",
"                      RuLb1        2.74     0.146",
"                      ----         3.23     0.052",
"                      CaKa         3.68     0.292",
"                      CaKb         3.99     0.042",
"                      BiLL         9.43     0.329",
"                      BiLa        10.81     5.834",
"                      ----        11.73     0.079",
"                      BiLb4       12.64     0.116",
"                      BiLb1       12.99     3.844",
"                      RbKa        13.40     0.109",
"                      BiLg1       15.22     0.600",
"                      BiLg2       15.68     0.165",
"                      RuKa        19.16     0.152",
"                      ----        19.44     0.069",
"                      ----        20.01     0.133",
"--------------------------------------------------------------------------------",
"",
"Quantitative Result",
"--------------------------------------------------------------------------------",
"Analyte               Result             Std.Dev. Proc.-Calc. Line Intensity(cps/uA)",
"--------------------------------------------------------------------------------",
"====[No. 1 Layer]====< Layer1               >===============================",
"Layer1                   0.000 ug/cm2    -------- Flux       -------- --------",

File: Bi 31520   .20100611040339.csv
"Sample    : Bi 31520   ",
"Operator  : Luís",
"Comment  : cubatao-g-policarbonato",
"Group     : kerr2007ag180cal_lt",
"Date       : 2010-06-11 03:59:32",
"",
"Mesurement Condition",
"------------------------------------------------------------------------------------",
"Instrument : 700HS2   Atmosphere : Vac.   Collimator : 10(mm)   Spin : No",
"------------------------------------------------------------------------------------",
"Analyte               TG kV   uA      FI Acq.(keV)  Anal.(keV)  Time(sec)     DT(%)",
"------------------------------------------------------------------------------------",
"Na                    Rh 50  187-Auto Al  0 - 20    0.8 - 1.2   Live -  180   16",
"",
"<Profile>",
"Channel_info_start",
"Channel : Na",
"Points : 2048",
"Range : 0.000000 - 20.48",
"Step : 0.010000",
"Channel_info_end",
"0",
"0",
"0",
"0",
"0",
"29",
"23",
"39",
"44",
"67",
"103",
"76",
"61",
"27",
"46",
"39",
"27",
"26",
"26",
"32",
"37",
"47",
"40",
"41",
"46",
"70",
"133",
"312",
"228",
"198",
"148",
"227",
"309",
"445",
"2482",
"4748",
"3665",
"1785",
"465",
"467",
"323",
"85",
"66",
"83",
"62",
"180",
"195",
"140",
"53",
"28",
"34",
"93",
"452",
"619",
"202",
"62",
"74",
"108",
"78",
"35",
"21",
"19",
"27",
"38",
"37",
"33",
"43",
"40",
"31",
"52",
"29",
"39",
"31",
"38",
"38",
"45",
"38",
"47",
"49",
"75",
"79",
"132",
"110",
"97",
"73",
"61",
"74",
"74",
"78",
"64",
"74",
"93",
"84",
"86",
"70",
"82",
"67",
"95",
"90",
"81",
"71",
"93",
"88",
"92",
"93",
"87",
"115",
"126",
"117",
"120",
"106",
"94",
"94",
"104",
"96",
"143",
"105",
"100",
"117",
"92",
"84",
"94",
"127",
"158",
"152",
"139",
"142",
"143",
"132",
"135",
"128",
"129",
"192",
"416",
"668",
"736",
"374",
"169",
"123",
"102",
"117",
"108",
"92",
"98",
"88",
"117",
"118",
"111",
"123",
"120",
"197",
"600",
"1827",
"5514",
"9584",
"10786",
"5922",
"2020",
"469",
"177",
"140",
"104",
"117",
"128",
"128",
"139",
"210",
"250",
"195",
"151",
"95",
"96",
"96",
"99",
"97",
"122",
"153",
"243",
"295",
"394",
"428",
"548",
"622",
"1526",
"3699",
"6612",
"6872",
"4794",
"2251",
"1051",
"590",
"516",
"357",
"219",
"156",
"107",
"93",
"92",
"87",
"75",
"60",
"68",
"55",
"70",
"83",
"60",
"70",
"83",
"85",
"92",
"92",
"107",
"118",
"55",
"129",
"334",
"703",
"1092",
"1017",
"746",
"422",
"284",
"277",
"407",
"336",
"284",
"141",
"99",
"70",
"64",
"55",
"109",
"98",
"103",
"82",
"56",
"49",
"60",
"70",
"55",
"48",
"59",
"35",
"55",
"51",
"46",
"45",
"49",
"58",
"55",
"49",
"46",
"28",
"49",
"50",
"51",
"49",
"52",
"41",
"45",
"60",
"64",
"47",
"48",
"62",
"55",
"71",
"85",
"122",
"160",
"202",
"222",
"252",
"282",
"276",
"271",
"262",
"210",
"163",
"120",
"92",
"76",
"83",
"102",
"116",
"209",
"214",
"261",
"209",
"162",
"92",
"51",
"59",
"23784",
"Channel_info_start",
"Channel : Mg",
"Points : 0",
"Range : 0.000000 - 0.000000",
"Step : 0.010000",
"Channel_info_end",
"Channel_info_start",
"Channel : Al",
"Points : 0",
"Range : 0.000000 - 0.000000",
"Step : 0.010000",
"Channel_info_end",
"Channel_info_start",
"Channel : Si",
"Points : 0",
"Range : 0.000000 - 0.000000",
"Step : 0.010000",
"Channel_info_end",
"Channel_info_start",
"Channel : P ",
"Points : 0",
"Range : 0.000000 - 0.000000",
"Step : 0.010000",
"Channel_info_end",
"Channel_info_start",
"Channel : S ",
"Points : 0",
"Range : 0.000000 - 0.000000",
"Step : 0.010000",
"Channel_info_end",
"Channel_info_start",
"Channel : Cl",
"Points : 0",
"Range : 0.000000 - 0.000000",
"Step : 0.010000",
"Channel_info_end",
"Channel_info_start",
"Channel : K ",
"Points : 0",
"Range : 0.000000 - 0.000000",
"Step : 0.010000",
"Channel_info_end",
"Channel_info_start",
"Channel : Ca",
"Points : 0",
"Range : 0.000000 - 0.000000",
"Step : 0.010000",
"Channel_info_end",
"Channel_info_start",
"Channel : Ti",
"Points : 0",
"Range : 0.000000 - 0.000000",
"Step : 0.010000",
"Channel_info_end",
"Channel_info_start",
"Channel : V ",
"Points : 0",
"Range : 0.000000 - 0.000000",
"Step : 0.010000",
"Channel_info_end",
"Channel_info_start",
"Channel : Cr",
"Points : 0",
"Range : 0.000000 - 0.000000",
"Step : 0.010000",
"Channel_info_end",
"Channel_info_start",
"Channel : Mn",
"Points : 0",
"Range : 0.000000 - 0.000000",
"Step : 0.010000",
"Channel_info_end",
"Channel_info_start",
"Channel : Fe",
"Points : 0",
"Range : 0.000000 - 0.000000",
"Step : 0.010000",
"Channel_info_end",
"Channel_info_start",
"Channel : Cu",
"Points : 0",
"Range : 0.000000 - 0.000000",
"Step : 0.010000",
"Channel_info_end",
"Channel_info_start",
"Channel : Zn",
"Points : 0",
"Range : 0.000000 - 0.000000",
"Step : 0.010000",
"Channel_info_end",
"Channel_info_start",
"Channel : Sr",
"Points : 0",
"Range : 0.000000 - 0.000000",
"Step : 0.010000",
"Channel_info_end",
"Channel_info_start",
"Channel : Pb",
"Points : 0",
"Range : 0.000000 - 0.000000",
"Step : 0.010000",
"Channel_info_end",
"",
"Qualitative Result",
"--------------------------------------------------------------------------------",
"Element :  Bi, Ru, Ca, Pb",
"",
"Peak List",
"--------------------------------------------------------------------------------",
"Channel               Line        keV     Net Int.(cps/uA)",
"--------------------------------------------------------------------------------",
"Na                    ----         0.70     0.024",
"                      ----         0.81     0.014",
"                      ----         1.90     0.090",
"                      ----         2.21     0.049",
"                      BiMa         2.44     1.706",
"                      RuLb1        2.75     0.152",
"                      ----         3.20     0.071",
"                      CaKa         3.69     0.295",
"                      CaKb         4.03     0.039",
"                      ----         5.66     0.034",
"                      BiLL         9.42     0.361",
"                      BiLa        10.81     6.061",
"                      ----        11.68     0.079",
"                      PbLb1       12.57     0.088",
"                      BiLb1       13.00     4.127",
"                      ----        13.40     0.110",
"                      BiLg1       15.22     0.624",
"                      BiLg2       15.60     0.182",
"                      RuKa        19.19     0.146",
"                      ----        20.01     0.126",
"--------------------------------------------------------------------------------",
"",
"Quantitative Result",
"--------------------------------------------------------------------------------",
"Analyte               Result             Std.Dev. Proc.-Calc. Line Intensity(cps/uA)",
"--------------------------------------------------------------------------------",
"====[No. 1 Layer]====< Layer1               >===============================",
"Layer1                   0.000 ug/cm2    -------- Flux       -------- --------",

File: Bi 31520.20100526014617.csv
"Sample    : Bi 31520",
"Operator  : luisf",
"Comment  : cubatao-g-policarbonato",
"Group     : kerr2007ag180cal_lt",
"Date       : 2010-05-26 01:42:12",
"",
"Mesurement Condition",
"------------------------------------------------------------------------------------",
"Instrument : 700HS2   Atmosphere : Vac.   Collimator : 10(mm)   Spin : No",
"------------------------------------------------------------------------------------",
"Analyte               TG kV   uA      FI Acq.(keV)  Anal.(keV)  Time(sec)     DT(%)",
"------------------------------------------------------------------------------------",
"Na                    Rh 50  187-Auto Al  0 - 20    0.8 - 1.2   Live -  180   16",
"",
"<Profile>",
"Channel_info_start",
"Channel : Na",
"Points : 2048",
"Range : 0.000000 - 20.48",
"Step : 0.010000",
"Channel_info_end",
"0",
"0",
"0",
"0",
"0",
"32",
"25",
"37",
"27",
"79",
"114",
"102",
"52",
"20",
"35",
"37",
"22",
"46",
"40",
"29",
"38",
"34",
"33",
"34",
"45",
"58",
"127",
"335",
"254",
"177",
"133",
"207",
"288",
"451",
"2486",
"4839",
"3787",
"1917",
"431",
"487",
"310",
"117",
"68",
"93",
"83",
"153",
"222",
"126",
"54",
"21",
"29",
"116",
"463",
"736",
"216",
"72",
"80",
"123",
"94",
"25",
"17",
"24",
"31",
"35",
"48",
"36",
"46",
"48",
"32",
"38",
"40",
"45",
"33",
"38",
"43",
"48",
"38",
"52",
"49",
"76",
"88",
"102",
"128",
"120",
"76",
"61",
"63",
"64",
"71",
"72",
"75",
"79",
"76",
"92",
"74",
"76",
"91",
"83",
"94",
"79",
"99",
"86",
"84",
"83",
"79",
"88",
"90",
"111",
"114",
"115",
"99",
"98",
"79",
"93",
"106",
"121",
"108",
"86",
"92",
"106",
"104",
"123",
"123",
"166",
"154",
"126",
"145",
"132",
"142",
"150",
"116",
"142",
"175",
"378",
"657",
"710",
"439",
"199",
"136",
"104",
"105",
"110",
"112",
"107",
"114",
"100",
"112",
"112",
"119",
"143",
"183",
"522",
"1637",
"5194",
"9340",
"10903",
"6449",
"2255",
"476",
"195",
"147",
"120",
"109",
"109",
"114",
"162",
"198",
"256",
"234",
"145",
"111",
"105",
"93",
"74",
"97",
"121",
"132",
"219",
"271",
"354",
"462",
"578",
"603",
"1353",
"3430",
"6437",
"6963",
"5176",
"2384",
"1122",
"628",
"504",
"399",
"233",
"140",
"110",
"104",
"91",
"93",
"85",
"79",
"70",
"61",
"70",
"67",
"70",
"70",
"78",
"84",
"71",
"100",
"99",
"97",
"103",
"115",
"330",
"619",
"1085",
"1011",
"701",
"380",
"287",
"293",
"382",
"392",
"294",
"155",
"85",
"68",
"71",
"62",
"96",
"81",
"107",
"81",
"50",
"49",
"38",
"52",
"48",
"54",
"38",
"45",
"56",
"43",
"44",
"47",
"47",
"45",
"54",
"38",
"66",
"57",
"49",
"60",
"50",
"67",
"51",
"62",
"56",
"61",
"56",
"56",
"43",
"71",
"74",
"86",
"78",
"111",
"128",
"163",
"193",
"252",
"238",
"250",
"302",
"263",
"175",
"173",
"144",
"111",
"78",
"84",
"82",
"119",
"202",
"209",
"284",
"259",
"181",
"95",
"60",
"50",
"23601",
"Channel_info_start",
"Channel : Mg",
"Points : 0",
"Range : 0.000000 - 0.000000",
"Step : 0.010000",
"Channel_info_end",
"Channel_info_start",
"Channel : Al",
"Points : 0",
"Range : 0.000000 - 0.000000",
"Step : 0.010000",
"Channel_info_end",
"Channel_info_start",
"Channel : Si",
"Points : 0",
"Range : 0.000000 - 0.000000",
"Step : 0.010000",
"Channel_info_end",
"Channel_info_start",
"Channel : P ",
"Points : 0",
"Range : 0.000000 - 0.000000",
"Step : 0.010000",
"Channel_info_end",
"Channel_info_start",
"Channel : S ",
"Points : 0",
"Range : 0.000000 - 0.000000",
"Step : 0.010000",
"Channel_info_end",
"Channel_info_start",
"Channel : Cl",
"Points : 0",
"Range : 0.000000 - 0.000000",
"Step : 0.010000",
"Channel_info_end",
"Channel_info_start",
"Channel : K ",
"Points : 0",
"Range : 0.000000 - 0.000000",
"Step : 0.010000",
"Channel_info_end",
"Channel_info_start",
"Channel : Ca",
"Points : 0",
"Range : 0.000000 - 0.000000",
"Step : 0.010000",
"Channel_info_end",
"Channel_info_start",
"Channel : Ti",
"Points : 0",
"Range : 0.000000 - 0.000000",
"Step : 0.010000",
"Channel_info_end",
"Channel_info_start",
"Channel : V ",
"Points : 0",
"Range : 0.000000 - 0.000000",
"Step : 0.010000",
"Channel_info_end",
"Channel_info_start",
"Channel : Cr",
"Points : 0",
"Range : 0.000000 - 0.000000",
"Step : 0.010000",
"Channel_info_end",
"Channel_info_start",
"Channel : Mn",
"Points : 0",
"Range : 0.000000 - 0.000000",
"Step : 0.010000",
"Channel_info_end",
"Channel_info_start",
"Channel : Fe",
"Points : 0",
"Range : 0.000000 - 0.000000",
"Step : 0.010000",
"Channel_info_end",
"Channel_info_start",
"Channel : Cu",
"Points : 0",
"Range : 0.000000 - 0.000000",
"Step : 0.010000",
"Channel_info_end",
"Channel_info_start",
"Channel : Zn",
"Points : 0",
"Range : 0.000000 - 0.000000",
"Step : 0.010000",
"Channel_info_end",
"Channel_info_start",
"Channel : Sr",
"Points : 0",
"Range : 0.000000 - 0.000000",
"Step : 0.010000",
"Channel_info_end",
"Channel_info_start",
"Channel : Pb",
"Points : 0",
"Range : 0.000000 - 0.000000",
"Step : 0.010000",
"Channel_info_end",
"",
"Qualitative Result",
"--------------------------------------------------------------------------------",
"Element :  Bi, Ru, Ca",
"",
"Peak List",
"--------------------------------------------------------------------------------",
"Channel               Line        keV     Net Int.(cps/uA)",
"--------------------------------------------------------------------------------",
"Na                    ----         0.69     0.024",
"                      ----         0.78     0.021",
"                      ----         1.90     0.089",
"                      ----         2.21     0.047",
"                      BiMa         2.44     1.719",
"                      RuLb1        2.75     0.159",
"                      ----         3.22     0.065",
"                      CaKa         3.69     0.281",
"                      CaKb         4.01     0.038",
"                      BiLL         9.42     0.358",
"                      BiLa        10.84     6.048",
"                      ----        11.73     0.080",
"                      BiLb4       12.65     0.112",
"                      BiLb1       13.00     4.074",
"                      ----        13.44     0.098",
"                      BiLg1       15.24     0.613",
"                      BiLg2       15.64     0.165",
"                      RuKa        19.16     0.130",
"                      ----        19.45     0.068",
"                      ----        19.98     0.099",
"--------------------------------------------------------------------------------",
"",
"Quantitative Result",
"--------------------------------------------------------------------------------",
"Analyte               Result             Std.Dev. Proc.-Calc. Line Intensity(cps/uA)",
"--------------------------------------------------------------------------------",
"====[No. 1 Layer]====< Layer1               >===============================",
"Layer1                   0.000 ug/cm2    -------- Flux       -------- --------",