Folder: mestrado_ifusp/inputs/edxCalibration/edx_raw/2010/junho (part 19)

File: ZnTe 31501.20100611011820.csv
"Sample    : ZnTe 31501",
"Operator  : Luís",
"Comment  : cubatao-g-policarbonato",
"Group     : kerr2007ag180cal_lt",
"Date       : 2010-06-11 01:14:16",
"",
"Mesurement Condition",
"------------------------------------------------------------------------------------",
"Instrument : 700HS2   Atmosphere : Vac.   Collimator : 10(mm)   Spin : No",
"------------------------------------------------------------------------------------",
"Analyte               TG kV   uA      FI Acq.(keV)  Anal.(keV)  Time(sec)     DT(%)",
"------------------------------------------------------------------------------------",
"Na                    Rh 50  237-Auto Al  0 - 20    0.8 - 1.2   Live -  180   15",
"",
"<Profile>",
"Channel_info_start",
"Channel : Na",
"Points : 2048",
"Range : 0.000000 - 20.48",
"Step : 0.010000",
"Channel_info_end",
"0",
"0",
"0",
"0",
"1",
"22",
"16",
"32",
"15",
"28",
"25",
"34",
"37",
"39",
"131",
"247",
"92",
"31",
"23",
"29",
"17",
"38",
"36",
"40",
"26",
"36",
"38",
"46",
"110",
"134",
"51",
"44",
"45",
"95",
"53",
"34",
"21",
"44",
"31",
"43",
"44",
"28",
"35",
"52",
"54",
"53",
"73",
"244",
"293",
"132",
"128",
"329",
"1190",
"4706",
"6473",
"2270",
"786",
"3250",
"3885",
"2215",
"713",
"840",
"747",
"269",
"227",
"516",
"344",
"153",
"242",
"341",
"179",
"84",
"49",
"52",
"48",
"52",
"52",
"60",
"62",
"72",
"53",
"85",
"70",
"70",
"57",
"81",
"56",
"101",
"94",
"101",
"100",
"114",
"122",
"101",
"123",
"96",
"94",
"144",
"117",
"114",
"92",
"97",
"108",
"121",
"112",
"100",
"116",
"142",
"129",
"118",
"116",
"110",
"105",
"107",
"135",
"171",
"135",
"146",
"120",
"165",
"400",
"2572",
"9370",
"17064",
"12909",
"4309",
"719",
"182",
"157",
"128",
"126",
"148",
"154",
"195",
"326",
"1094",
"2125",
"2162",
"1143",
"378",
"137",
"108",
"93",
"107",
"82",
"92",
"81",
"87",
"84",
"80",
"84",
"119",
"94",
"98",
"87",
"87",
"95",
"93",
"99",
"94",
"80",
"87",
"73",
"109",
"93",
"95",
"93",
"94",
"92",
"83",
"85",
"96",
"121",
"100",
"72",
"96",
"99",
"93",
"83",
"92",
"99",
"78",
"93",
"82",
"70",
"95",
"77",
"75",
"69",
"101",
"73",
"73",
"85",
"66",
"81",
"90",
"71",
"76",
"74",
"90",
"78",
"80",
"80",
"77",
"74",
"77",
"66",
"68",
"89",
"61",
"63",
"57",
"71",
"60",
"62",
"72",
"72",
"80",
"70",
"69",
"59",
"63",
"63",
"61",
"56",
"69",
"56",
"62",
"65",
"49",
"58",
"60",
"58",
"65",
"57",
"63",
"45",
"62",
"59",
"64",
"58",
"52",
"56",
"68",
"69",
"68",
"69",
"74",
"78",
"39",
"57",
"52",
"56",
"54",
"56",
"44",
"53",
"62",
"62",
"73",
"72",
"70",
"71",
"59",
"70",
"99",
"95",
"130",
"133",
"153",
"196",
"275",
"312",
"323",
"344",
"363",
"323",
"264",
"197",
"147",
"143",
"90",
"85",
"87",
"125",
"160",
"213",
"218",
"195",
"133",
"78",
"61",
"51",
"52922",
"Channel_info_start",
"Channel : Mg",
"Points : 0",
"Range : 0.000000 - 0.000000",
"Step : 0.010000",
"Channel_info_end",
"Channel_info_start",
"Channel : Al",
"Points : 0",
"Range : 0.000000 - 0.000000",
"Step : 0.010000",
"Channel_info_end",
"Channel_info_start",
"Channel : Si",
"Points : 0",
"Range : 0.000000 - 0.000000",
"Step : 0.010000",
"Channel_info_end",
"Channel_info_start",
"Channel : P ",
"Points : 0",
"Range : 0.000000 - 0.000000",
"Step : 0.010000",
"Channel_info_end",
"Channel_info_start",
"Channel : S ",
"Points : 0",
"Range : 0.000000 - 0.000000",
"Step : 0.010000",
"Channel_info_end",
"Channel_info_start",
"Channel : Cl",
"Points : 0",
"Range : 0.000000 - 0.000000",
"Step : 0.010000",
"Channel_info_end",
"Channel_info_start",
"Channel : K ",
"Points : 0",
"Range : 0.000000 - 0.000000",
"Step : 0.010000",
"Channel_info_end",
"Channel_info_start",
"Channel : Ca",
"Points : 0",
"Range : 0.000000 - 0.000000",
"Step : 0.010000",
"Channel_info_end",
"Channel_info_start",
"Channel : Ti",
"Points : 0",
"Range : 0.000000 - 0.000000",
"Step : 0.010000",
"Channel_info_end",
"Channel_info_start",
"Channel : V ",
"Points : 0",
"Range : 0.000000 - 0.000000",
"Step : 0.010000",
"Channel_info_end",
"Channel_info_start",
"Channel : Cr",
"Points : 0",
"Range : 0.000000 - 0.000000",
"Step : 0.010000",
"Channel_info_end",
"Channel_info_start",
"Channel : Mn",
"Points : 0",
"Range : 0.000000 - 0.000000",
"Step : 0.010000",
"Channel_info_end",
"Channel_info_start",
"Channel : Fe",
"Points : 0",
"Range : 0.000000 - 0.000000",
"Step : 0.010000",
"Channel_info_end",
"Channel_info_start",
"Channel : Cu",
"Points : 0",
"Range : 0.000000 - 0.000000",
"Step : 0.010000",
"Channel_info_end",
"Channel_info_start",
"Channel : Zn",
"Points : 0",
"Range : 0.000000 - 0.000000",
"Step : 0.010000",
"Channel_info_end",
"Channel_info_start",
"Channel : Sr",
"Points : 0",
"Range : 0.000000 - 0.000000",
"Step : 0.010000",
"Channel_info_end",
"Channel_info_start",
"Channel : Pb",
"Points : 0",
"Range : 0.000000 - 0.000000",
"Step : 0.010000",
"Channel_info_end",
"",
"Qualitative Result",
"--------------------------------------------------------------------------------",
"Element :  Zn, P , S , Te, K , Ca, Rh",
"",
"Peak List",
"--------------------------------------------------------------------------------",
"Channel               Line        keV     Net Int.(cps/uA)",
"--------------------------------------------------------------------------------",
"Na                    ZnLa         1.02     0.052",
"                      ZnLb1        1.03     0.015",
"                      P Ka         2.01     0.044",
"                      S Ka         2.30     0.014",
"                      TeLL         3.34     0.062",
"                      K Ka         3.34     0.013",
"                      CaKa         3.76     2.175",
"                      CaKb         4.04     0.304",
"                      TeLb1        4.04     1.051",
"                      TeLb2        4.30     0.242",
"                      TeLg1        4.56     0.111",
"                      TeLg2        4.83     0.076",
"                      ZnKa         8.63     6.864",
"                      ZnKb         9.54     0.936",
"                      RhKaC       19.13     0.133",
"                      ----        19.43     0.066",
"                      RhKa        20.06     0.081",
"--------------------------------------------------------------------------------",
"",
"Quantitative Result",
"--------------------------------------------------------------------------------",
"Analyte               Result             Std.Dev. Proc.-Calc. Line Intensity(cps/uA)",
"--------------------------------------------------------------------------------",
"====[No. 1 Layer]====< Layer1               >===============================",
"Layer1                   0.000 ug/cm2    -------- Flux       -------- --------",