Folder: mestrado_ifusp/inputs/edxCalibration/edx_raw/2010/junho (part 11)

File: Ndf3 31515.20100611034500.csv
"Sample    : Ndf3 31515",
"Operator  : Luís",
"Comment  : cubatao-g-policarbonato",
"Group     : kerr2007ag180cal_lt",
"Date       : 2010-06-11 03:40:48",
"",
"Mesurement Condition",
"------------------------------------------------------------------------------------",
"Instrument : 700HS2   Atmosphere : Vac.   Collimator : 10(mm)   Spin : No",
"------------------------------------------------------------------------------------",
"Analyte               TG kV   uA      FI Acq.(keV)  Anal.(keV)  Time(sec)     DT(%)",
"------------------------------------------------------------------------------------",
"Na                    Rh 50  360-Auto Al  0 - 20    0.8 - 1.2   Live -  179   15",
"",
"<Profile>",
"Channel_info_start",
"Channel : Na",
"Points : 2048",
"Range : 0.000000 - 20.48",
"Step : 0.010000",
"Channel_info_end",
"0",
"0",
"0",
"0",
"1",
"33",
"23",
"17",
"28",
"25",
"32",
"41",
"31",
"61",
"231",
"217",
"60",
"68",
"69",
"63",
"60",
"34",
"27",
"20",
"34",
"44",
"33",
"41",
"77",
"106",
"45",
"36",
"27",
"23",
"22",
"13",
"33",
"31",
"28",
"31",
"31",
"45",
"37",
"24",
"38",
"44",
"31",
"37",
"47",
"105",
"135",
"200",
"955",
"1263",
"399",
"85",
"146",
"286",
"159",
"85",
"46",
"62",
"88",
"116",
"151",
"368",
"762",
"534",
"210",
"127",
"115",
"171",
"405",
"3293",
"11604",
"14670",
"4922",
"664",
"177",
"323",
"1784",
"7206",
"9135",
"5351",
"1832",
"864",
"1652",
"2727",
"1473",
"457",
"180",
"211",
"336",
"845",
"1413",
"1133",
"478",
"466",
"768",
"656",
"348",
"270",
"223",
"163",
"134",
"131",
"128",
"129",
"128",
"119",
"131",
"153",
"153",
"217",
"178",
"227",
"177",
"169",
"141",
"169",
"144",
"165",
"156",
"187",
"199",
"164",
"148",
"142",
"159",
"177",
"136",
"146",
"141",
"138",
"140",
"144",
"143",
"147",
"158",
"168",
"180",
"157",
"160",
"155",
"154",
"158",
"139",
"148",
"165",
"162",
"141",
"151",
"115",
"131",
"140",
"139",
"157",
"153",
"120",
"158",
"153",
"122",
"146",
"144",
"141",
"145",
"128",
"164",
"130",
"131",
"134",
"123",
"153",
"119",
"138",
"139",
"123",
"118",
"116",
"110",
"119",
"128",
"112",
"112",
"123",
"136",
"120",
"111",
"118",
"108",
"115",
"112",
"109",
"115",
"108",
"98",
"122",
"118",
"110",
"119",
"109",
"116",
"100",
"114",
"97",
"98",
"92",
"98",
"109",
"96",
"117",
"105",
"110",
"111",
"98",
"92",
"100",
"89",
"92",
"95",
"106",
"82",
"108",
"93",
"89",
"87",
"93",
"108",
"110",
"65",
"88",
"87",
"97",
"88",
"74",
"97",
"101",
"98",
"72",
"72",
"71",
"95",
"79",
"85",
"81",
"61",
"80",
"80",
"84",
"81",
"73",
"75",
"99",
"96",
"77",
"81",
"93",
"77",
"94",
"76",
"76",
"95",
"114",
"97",
"109",
"107",
"136",
"166",
"191",
"254",
"283",
"421",
"439",
"526",
"459",
"499",
"474",
"396",
"280",
"202",
"164",
"117",
"126",
"126",
"204",
"237",
"300",
"319",
"284",
"191",
"117",
"93",
"77",
"39600",
"Channel_info_start",
"Channel : Mg",
"Points : 0",
"Range : 0.000000 - 0.000000",
"Step : 0.010000",
"Channel_info_end",
"Channel_info_start",
"Channel : Al",
"Points : 0",
"Range : 0.000000 - 0.000000",
"Step : 0.010000",
"Channel_info_end",
"Channel_info_start",
"Channel : Si",
"Points : 0",
"Range : 0.000000 - 0.000000",
"Step : 0.010000",
"Channel_info_end",
"Channel_info_start",
"Channel : P ",
"Points : 0",
"Range : 0.000000 - 0.000000",
"Step : 0.010000",
"Channel_info_end",
"Channel_info_start",
"Channel : S ",
"Points : 0",
"Range : 0.000000 - 0.000000",
"Step : 0.010000",
"Channel_info_end",
"Channel_info_start",
"Channel : Cl",
"Points : 0",
"Range : 0.000000 - 0.000000",
"Step : 0.010000",
"Channel_info_end",
"Channel_info_start",
"Channel : K ",
"Points : 0",
"Range : 0.000000 - 0.000000",
"Step : 0.010000",
"Channel_info_end",
"Channel_info_start",
"Channel : Ca",
"Points : 0",
"Range : 0.000000 - 0.000000",
"Step : 0.010000",
"Channel_info_end",
"Channel_info_start",
"Channel : Ti",
"Points : 0",
"Range : 0.000000 - 0.000000",
"Step : 0.010000",
"Channel_info_end",
"Channel_info_start",
"Channel : V ",
"Points : 0",
"Range : 0.000000 - 0.000000",
"Step : 0.010000",
"Channel_info_end",
"Channel_info_start",
"Channel : Cr",
"Points : 0",
"Range : 0.000000 - 0.000000",
"Step : 0.010000",
"Channel_info_end",
"Channel_info_start",
"Channel : Mn",
"Points : 0",
"Range : 0.000000 - 0.000000",
"Step : 0.010000",
"Channel_info_end",
"Channel_info_start",
"Channel : Fe",
"Points : 0",
"Range : 0.000000 - 0.000000",
"Step : 0.010000",
"Channel_info_end",
"Channel_info_start",
"Channel : Cu",
"Points : 0",
"Range : 0.000000 - 0.000000",
"Step : 0.010000",
"Channel_info_end",
"Channel_info_start",
"Channel : Zn",
"Points : 0",
"Range : 0.000000 - 0.000000",
"Step : 0.010000",
"Channel_info_end",
"Channel_info_start",
"Channel : Sr",
"Points : 0",
"Range : 0.000000 - 0.000000",
"Step : 0.010000",
"Channel_info_end",
"Channel_info_start",
"Channel : Pb",
"Points : 0",
"Range : 0.000000 - 0.000000",
"Step : 0.010000",
"Channel_info_end",
"",
"Qualitative Result",
"--------------------------------------------------------------------------------",
"Element :  Nd, Mg, P , Ca, La, Tm, Cu, Ru",
"",
"Peak List",
"--------------------------------------------------------------------------------",
"Channel               Line        keV     Net Int.(cps/uA)",
"--------------------------------------------------------------------------------",
"Na                    NdMa         1.02     0.045",
"                      MgKa         1.21     0.008",
"                      P Ka         2.00     0.018",
"                      NdLaESC      3.47     0.018",
"                      CaKa         3.68     0.286",
"                      CaKb         4.01     0.040",
"                      NdLL         4.63     0.108",
"                      LaLa         4.63     0.045",
"                      NdLa         5.22     3.601",
"                      NdLb1        5.72     2.297",
"                      NdLb2        6.08     0.594",
"                      NdLg1        6.58     0.325",
"                      NdLg2        6.87     0.153",
"                      TmLa         7.10     0.029",
"                      TmLb1        8.10     0.016",
"                      CuKa         8.10     0.008",
"                      RuKa        19.20     0.142",
"                      ----        19.48     0.035",
"--------------------------------------------------------------------------------",
"",
"Quantitative Result",
"--------------------------------------------------------------------------------",
"Analyte               Result             Std.Dev. Proc.-Calc. Line Intensity(cps/uA)",
"--------------------------------------------------------------------------------",
"====[No. 1 Layer]====< Layer1               >===============================",
"Layer1                   2.689 ug/cm2    -------- Flux       -------- --------",
"Mg                       2.689 ug/cm2    -------- ********** -------- --------",

File: NdF3 31515.20100626150702.csv
"Sample    : NdF3 31515",
"Operator  : thiago",
"Comment  : cubatao-g-policarbonato",
"Group     : kerr2007ag180cal_lt",
"Date       : 2010-06-26 15:02:49",
"",
"Mesurement Condition",
"------------------------------------------------------------------------------------",
"Instrument : 700HS2   Atmosphere : Vac.   Collimator : 10(mm)   Spin : No",
"------------------------------------------------------------------------------------",
"Analyte               TG kV   uA      FI Acq.(keV)  Anal.(keV)  Time(sec)     DT(%)",
"------------------------------------------------------------------------------------",
"Na                    Rh 50  360-Auto Al  0 - 20    0.8 - 1.2   Live -  179   15",
"",
"<Profile>",
"Channel_info_start",
"Channel : Na",
"Points : 2048",
"Range : 0.000000 - 20.48",
"Step : 0.010000",
"Channel_info_end",
"0",
"0",
"0",
"0",
"1",
"25",
"22",
"26",
"17",
"17",
"39",
"43",
"26",
"68",
"197",
"200",
"71",
"82",
"81",
"87",
"44",
"23",
"35",
"27",
"32",
"39",
"27",
"51",
"99",
"135",
"32",
"33",
"27",
"17",
"24",
"27",
"14",
"33",
"29",
"28",
"28",
"32",
"29",
"27",
"20",
"39",
"34",
"42",
"44",
"114",
"127",
"188",
"942",
"1325",
"426",
"132",
"140",
"257",
"221",
"87",
"78",
"63",
"91",
"107",
"131",
"385",
"726",
"583",
"220",
"144",
"140",
"176",
"415",
"2957",
"11212",
"15368",
"5718",
"733",
"168",
"270",
"1570",
"6848",
"9563",
"5580",
"2130",
"856",
"1587",
"2761",
"1725",
"478",
"200",
"198",
"286",
"776",
"1378",
"1253",
"511",
"465",
"753",
"691",
"380",
"255",
"206",
"159",
"141",
"117",
"109",
"134",
"140",
"130",
"161",
"194",
"132",
"176",
"200",
"239",
"173",
"173",
"184",
"128",
"152",
"156",
"177",
"236",
"189",
"181",
"163",
"164",
"168",
"139",
"134",
"151",
"125",
"169",
"159",
"165",
"173",
"153",
"134",
"142",
"155",
"135",
"163",
"172",
"152",
"166",
"138",
"165",
"154",
"173",
"163",
"150",
"145",
"153",
"126",
"164",
"152",
"156",
"130",
"159",
"142",
"152",
"123",
"126",
"129",
"150",
"133",
"141",
"129",
"149",
"130",
"126",
"133",
"114",
"131",
"115",
"118",
"109",
"134",
"166",
"114",
"101",
"135",
"108",
"105",
"119",
"113",
"126",
"113",
"121",
"114",
"128",
"138",
"111",
"99",
"113",
"123",
"106",
"115",
"129",
"107",
"117",
"105",
"111",
"98",
"102",
"86",
"97",
"129",
"102",
"87",
"107",
"84",
"108",
"95",
"105",
"109",
"81",
"88",
"85",
"111",
"104",
"74",
"75",
"90",
"94",
"94",
"91",
"94",
"93",
"86",
"93",
"84",
"93",
"72",
"90",
"82",
"59",
"80",
"79",
"90",
"81",
"98",
"71",
"82",
"76",
"72",
"83",
"82",
"81",
"73",
"84",
"90",
"83",
"69",
"75",
"115",
"91",
"101",
"91",
"94",
"81",
"102",
"97",
"95",
"120",
"117",
"168",
"186",
"243",
"281",
"373",
"446",
"524",
"518",
"548",
"501",
"421",
"319",
"245",
"204",
"139",
"147",
"119",
"142",
"208",
"285",
"317",
"339",
"235",
"152",
"91",
"84",
"40306",
"Channel_info_start",
"Channel : Mg",
"Points : 0",
"Range : 0.000000 - 0.000000",
"Step : 0.010000",
"Channel_info_end",
"Channel_info_start",
"Channel : Al",
"Points : 0",
"Range : 0.000000 - 0.000000",
"Step : 0.010000",
"Channel_info_end",
"Channel_info_start",
"Channel : Si",
"Points : 0",
"Range : 0.000000 - 0.000000",
"Step : 0.010000",
"Channel_info_end",
"Channel_info_start",
"Channel : P ",
"Points : 0",
"Range : 0.000000 - 0.000000",
"Step : 0.010000",
"Channel_info_end",
"Channel_info_start",
"Channel : S ",
"Points : 0",
"Range : 0.000000 - 0.000000",
"Step : 0.010000",
"Channel_info_end",
"Channel_info_start",
"Channel : Cl",
"Points : 0",
"Range : 0.000000 - 0.000000",
"Step : 0.010000",
"Channel_info_end",
"Channel_info_start",
"Channel : K ",
"Points : 0",
"Range : 0.000000 - 0.000000",
"Step : 0.010000",
"Channel_info_end",
"Channel_info_start",
"Channel : Ca",
"Points : 0",
"Range : 0.000000 - 0.000000",
"Step : 0.010000",
"Channel_info_end",
"Channel_info_start",
"Channel : Ti",
"Points : 0",
"Range : 0.000000 - 0.000000",
"Step : 0.010000",
"Channel_info_end",
"Channel_info_start",
"Channel : V ",
"Points : 0",
"Range : 0.000000 - 0.000000",
"Step : 0.010000",
"Channel_info_end",
"Channel_info_start",
"Channel : Cr",
"Points : 0",
"Range : 0.000000 - 0.000000",
"Step : 0.010000",
"Channel_info_end",
"Channel_info_start",
"Channel : Mn",
"Points : 0",
"Range : 0.000000 - 0.000000",
"Step : 0.010000",
"Channel_info_end",
"Channel_info_start",
"Channel : Fe",
"Points : 0",
"Range : 0.000000 - 0.000000",
"Step : 0.010000",
"Channel_info_end",
"Channel_info_start",
"Channel : Cu",
"Points : 0",
"Range : 0.000000 - 0.000000",
"Step : 0.010000",
"Channel_info_end",
"Channel_info_start",
"Channel : Zn",
"Points : 0",
"Range : 0.000000 - 0.000000",
"Step : 0.010000",
"Channel_info_end",
"Channel_info_start",
"Channel : Sr",
"Points : 0",
"Range : 0.000000 - 0.000000",
"Step : 0.010000",
"Channel_info_end",
"Channel_info_start",
"Channel : Pb",
"Points : 0",
"Range : 0.000000 - 0.000000",
"Step : 0.010000",
"Channel_info_end",
"",
"Qualitative Result",
"--------------------------------------------------------------------------------",
"Element :  Nd, Mg, P , Ca, Sm, Cu, Ru",
"",
"Peak List",
"--------------------------------------------------------------------------------",
"Channel               Line        keV     Net Int.(cps/uA)",
"--------------------------------------------------------------------------------",
"Na                    NdMa         1.01     0.043",
"                      MgKa         1.21     0.008",
"                      ----         1.33     0.010",
"                      P Ka         2.01     0.018",
"                      NdLaESC      3.46     0.017",
"                      CaKa         3.69     0.301",
"                      CaKb         4.01     0.044",
"                      NdLL         4.64     0.145",
"                      NdLa         5.24     3.648",
"                      NdLb1        5.72     2.152",
"                      SmLa         5.72     0.152",
"                      NdLb2        6.08     0.605",
"                      NdLg1        6.60     0.328",
"                      NdLg2        6.88     0.153",
"                      CuKa         8.04     0.030",
"                      RuKa        19.21     0.144",
"--------------------------------------------------------------------------------",
"",
"Quantitative Result",
"--------------------------------------------------------------------------------",
"Analyte               Result             Std.Dev. Proc.-Calc. Line Intensity(cps/uA)",
"--------------------------------------------------------------------------------",
"====[No. 1 Layer]====< Layer1               >===============================",
"Layer1                   2.630 ug/cm2    -------- Flux       -------- --------",
"Mg                       2.630 ug/cm2    -------- ********** -------- --------",

File: Ni 15757.20100611011016.csv
"Sample    : Ni 15757",
"Operator  : Luís",
"Comment  : cubatao-g-policarbonato",
"Group     : kerr2007ag180cal_lt",
"Date       : 2010-06-11 01:04:12",
"",
"Mesurement Condition",
"------------------------------------------------------------------------------------",
"Instrument : 700HS2   Atmosphere : Vac.   Collimator : 10(mm)   Spin : No",
"------------------------------------------------------------------------------------",
"Analyte               TG kV   uA      FI Acq.(keV)  Anal.(keV)  Time(sec)     DT(%)",
"------------------------------------------------------------------------------------",
"Na                    Rh 50  168-Auto Al  0 - 20    0.8 - 1.2   Live -  179   16",
"",
"<Profile>",
"Channel_info_start",
"Channel : Na",
"Points : 2048",
"Range : 0.000000 - 20.48",
"Step : 0.010000",
"Channel_info_end",
"0",
"0",
"0",
"0",
"0",
"13",
"9",
"16",
"11",
"13",
"15",
"40",
"112",
"85",
"27",
"16",
"13",
"10",
"9",
"11",
"8",
"14",
"8",
"10",
"22",
"13",
"16",
"9",
"38",
"35",
"15",
"13",
"17",
"11",
"9",
"19",
"11",
"9",
"20",
"9",
"9",
"14",
"9",
"10",
"10",
"10",
"12",
"10",
"12",
"20",
"14",
"62",
"294",
"376",
"126",
"45",
"43",
"73",
"54",
"20",
"15",
"22",
"33",
"51",
"23",
"35",
"33",
"35",
"23",
"39",
"23",
"21",
"23",
"39",
"27",
"40",
"33",
"34",
"25",
"43",
"63",
"106",
"126",
"73",
"52",
"51",
"54",
"71",
"75",
"93",
"103",
"89",
"96",
"92",
"78",
"66",
"84",
"86",
"80",
"101",
"114",
"144",
"172",
"260",
"1347",
"9348",
"27369",
"32743",
"13967",
"2463",
"254",
"107",
"114",
"137",
"157",
"298",
"1098",
"3143",
"4320",
"2836",
"754",
"136",
"98",
"103",
"82",
"59",
"52",
"69",
"60",
"71",
"59",
"54",
"59",
"49",
"48",
"66",
"80",
"78",
"70",
"58",
"70",
"66",
"59",
"63",
"48",
"55",
"51",
"74",
"48",
"60",
"58",
"62",
"54",
"51",
"55",
"60",
"63",
"57",
"56",
"55",
"60",
"58",
"45",
"57",
"64",
"50",
"54",
"63",
"47",
"60",
"44",
"52",
"48",
"69",
"43",
"48",
"49",
"42",
"54",
"58",
"48",
"61",
"52",
"52",
"45",
"56",
"46",
"59",
"49",
"52",
"28",
"48",
"57",
"45",
"52",
"37",
"64",
"39",
"40",
"40",
"45",
"35",
"44",
"45",
"44",
"37",
"58",
"38",
"34",
"43",
"32",
"56",
"80",
"95",
"86",
"71",
"54",
"46",
"39",
"36",
"38",
"45",
"34",
"44",
"58",
"57",
"46",
"43",
"32",
"34",
"33",
"39",
"32",
"35",
"43",
"44",
"48",
"28",
"36",
"44",
"32",
"52",
"36",
"46",
"42",
"36",
"25",
"35",
"30",
"42",
"35",
"33",
"28",
"35",
"36",
"35",
"40",
"40",
"37",
"38",
"42",
"46",
"37",
"52",
"60",
"54",
"63",
"80",
"75",
"109",
"160",
"178",
"225",
"271",
"260",
"236",
"209",
"180",
"118",
"114",
"92",
"83",
"55",
"54",
"78",
"94",
"119",
"120",
"103",
"70",
"44",
"31",
"32",
"17365",
"Channel_info_start",
"Channel : Mg",
"Points : 0",
"Range : 0.000000 - 0.000000",
"Step : 0.010000",
"Channel_info_end",
"Channel_info_start",
"Channel : Al",
"Points : 0",
"Range : 0.000000 - 0.000000",
"Step : 0.010000",
"Channel_info_end",
"Channel_info_start",
"Channel : Si",
"Points : 0",
"Range : 0.000000 - 0.000000",
"Step : 0.010000",
"Channel_info_end",
"Channel_info_start",
"Channel : P ",
"Points : 0",
"Range : 0.000000 - 0.000000",
"Step : 0.010000",
"Channel_info_end",
"Channel_info_start",
"Channel : S ",
"Points : 0",
"Range : 0.000000 - 0.000000",
"Step : 0.010000",
"Channel_info_end",
"Channel_info_start",
"Channel : Cl",
"Points : 0",
"Range : 0.000000 - 0.000000",
"Step : 0.010000",
"Channel_info_end",
"Channel_info_start",
"Channel : K ",
"Points : 0",
"Range : 0.000000 - 0.000000",
"Step : 0.010000",
"Channel_info_end",
"Channel_info_start",
"Channel : Ca",
"Points : 0",
"Range : 0.000000 - 0.000000",
"Step : 0.010000",
"Channel_info_end",
"Channel_info_start",
"Channel : Ti",
"Points : 0",
"Range : 0.000000 - 0.000000",
"Step : 0.010000",
"Channel_info_end",
"Channel_info_start",
"Channel : V ",
"Points : 0",
"Range : 0.000000 - 0.000000",
"Step : 0.010000",
"Channel_info_end",
"Channel_info_start",
"Channel : Cr",
"Points : 0",
"Range : 0.000000 - 0.000000",
"Step : 0.010000",
"Channel_info_end",
"Channel_info_start",
"Channel : Mn",
"Points : 0",
"Range : 0.000000 - 0.000000",
"Step : 0.010000",
"Channel_info_end",
"Channel_info_start",
"Channel : Fe",
"Points : 0",
"Range : 0.000000 - 0.000000",
"Step : 0.010000",
"Channel_info_end",
"Channel_info_start",
"Channel : Cu",
"Points : 0",
"Range : 0.000000 - 0.000000",
"Step : 0.010000",
"Channel_info_end",
"Channel_info_start",
"Channel : Zn",
"Points : 0",
"Range : 0.000000 - 0.000000",
"Step : 0.010000",
"Channel_info_end",
"Channel_info_start",
"Channel : Sr",
"Points : 0",
"Range : 0.000000 - 0.000000",
"Step : 0.010000",
"Channel_info_end",
"Channel_info_start",
"Channel : Pb",
"Points : 0",
"Range : 0.000000 - 0.000000",
"Step : 0.010000",
"Channel_info_end",
"",
"Qualitative Result",
"--------------------------------------------------------------------------------",
"Element :  Ni, P , Ca, Rh",
"",
"Peak List",
"--------------------------------------------------------------------------------",
"Channel               Line        keV     Net Int.(cps/uA)",
"--------------------------------------------------------------------------------",
"Na                    NiLa         0.86     0.046",
"                      P Ka         2.01     0.013",
"                      CaKa         3.69     0.168",
"                      CaKb         3.99     0.023",
"                      NiKaESC      5.73     0.039",
"                      NiKa         7.46    18.949",
"                      NiKb         8.24     2.509",
"                      NiKaSUM     14.86     0.034",
"                      RhKaC       19.12     0.143",
"                      ----        19.37     0.079",
"                      RhKa        20.12     0.067",
"--------------------------------------------------------------------------------",
"",
"Quantitative Result",
"--------------------------------------------------------------------------------",
"Analyte               Result             Std.Dev. Proc.-Calc. Line Intensity(cps/uA)",
"--------------------------------------------------------------------------------",
"====[No. 1 Layer]====< Layer1               >===============================",
"Layer1                   0.000 ug/cm2    -------- Flux       -------- --------",