Folder: mestrado_ifusp/inputs/edxCalibration/edx_raw/2010/junho (part 5)

File: Bi 31520.20100626153536.csv
"Sample    : Bi 31520",
"Operator  : luis",
"Comment  : cubatao-g-policarbonato",
"Group     : kerr2007ag180cal_lt",
"Date       : 2010-06-26 15:31:30",
"",
"Mesurement Condition",
"------------------------------------------------------------------------------------",
"Instrument : 700HS2   Atmosphere : Vac.   Collimator : 10(mm)   Spin : No",
"------------------------------------------------------------------------------------",
"Analyte               TG kV   uA      FI Acq.(keV)  Anal.(keV)  Time(sec)     DT(%)",
"------------------------------------------------------------------------------------",
"Na                    Rh 50  187-Auto Al  0 - 20    0.8 - 1.2   Live -  179   16",
"",
"<Profile>",
"Channel_info_start",
"Channel : Na",
"Points : 2048",
"Range : 0.000000 - 20.48",
"Step : 0.010000",
"Channel_info_end",
"0",
"0",
"0",
"0",
"1",
"28",
"37",
"29",
"32",
"58",
"106",
"93",
"57",
"37",
"36",
"29",
"38",
"37",
"38",
"23",
"22",
"33",
"41",
"44",
"50",
"72",
"125",
"338",
"229",
"151",
"132",
"185",
"272",
"443",
"2334",
"4639",
"3741",
"1861",
"405",
"480",
"332",
"85",
"83",
"106",
"75",
"154",
"213",
"145",
"50",
"32",
"27",
"91",
"432",
"709",
"224",
"82",
"62",
"120",
"83",
"33",
"21",
"23",
"23",
"44",
"49",
"44",
"44",
"45",
"47",
"39",
"34",
"38",
"26",
"52",
"24",
"40",
"44",
"43",
"64",
"57",
"79",
"111",
"131",
"89",
"75",
"68",
"56",
"68",
"80",
"69",
"68",
"60",
"72",
"63",
"82",
"77",
"64",
"82",
"101",
"98",
"97",
"87",
"61",
"72",
"101",
"87",
"83",
"108",
"106",
"109",
"94",
"96",
"97",
"86",
"119",
"134",
"91",
"87",
"108",
"123",
"112",
"85",
"135",
"157",
"149",
"128",
"124",
"133",
"121",
"117",
"124",
"136",
"157",
"372",
"684",
"727",
"452",
"226",
"135",
"125",
"99",
"83",
"89",
"105",
"96",
"98",
"107",
"115",
"96",
"117",
"152",
"424",
"1507",
"4687",
"8977",
"10639",
"6827",
"2375",
"600",
"193",
"155",
"128",
"128",
"101",
"119",
"135",
"189",
"242",
"204",
"154",
"113",
"81",
"91",
"89",
"76",
"109",
"132",
"200",
"255",
"354",
"447",
"497",
"662",
"1254",
"3153",
"6161",
"6859",
"5456",
"2566",
"1124",
"606",
"474",
"407",
"246",
"140",
"103",
"81",
"103",
"92",
"79",
"70",
"71",
"59",
"71",
"62",
"71",
"74",
"70",
"80",
"95",
"100",
"96",
"96",
"92",
"120",
"278",
"573",
"948",
"1015",
"802",
"444",
"261",
"284",
"315",
"336",
"274",
"205",
"103",
"61",
"65",
"75",
"86",
"87",
"92",
"79",
"70",
"47",
"63",
"45",
"59",
"46",
"49",
"56",
"49",
"47",
"48",
"43",
"45",
"51",
"58",
"63",
"58",
"46",
"43",
"55",
"51",
"47",
"46",
"49",
"41",
"47",
"56",
"63",
"74",
"64",
"67",
"73",
"98",
"103",
"106",
"161",
"201",
"245",
"249",
"299",
"279",
"240",
"191",
"187",
"132",
"100",
"87",
"70",
"75",
"106",
"165",
"257",
"263",
"248",
"176",
"96",
"46",
"45",
"23410",
"Channel_info_start",
"Channel : Mg",
"Points : 0",
"Range : 0.000000 - 0.000000",
"Step : 0.010000",
"Channel_info_end",
"Channel_info_start",
"Channel : Al",
"Points : 0",
"Range : 0.000000 - 0.000000",
"Step : 0.010000",
"Channel_info_end",
"Channel_info_start",
"Channel : Si",
"Points : 0",
"Range : 0.000000 - 0.000000",
"Step : 0.010000",
"Channel_info_end",
"Channel_info_start",
"Channel : P ",
"Points : 0",
"Range : 0.000000 - 0.000000",
"Step : 0.010000",
"Channel_info_end",
"Channel_info_start",
"Channel : S ",
"Points : 0",
"Range : 0.000000 - 0.000000",
"Step : 0.010000",
"Channel_info_end",
"Channel_info_start",
"Channel : Cl",
"Points : 0",
"Range : 0.000000 - 0.000000",
"Step : 0.010000",
"Channel_info_end",
"Channel_info_start",
"Channel : K ",
"Points : 0",
"Range : 0.000000 - 0.000000",
"Step : 0.010000",
"Channel_info_end",
"Channel_info_start",
"Channel : Ca",
"Points : 0",
"Range : 0.000000 - 0.000000",
"Step : 0.010000",
"Channel_info_end",
"Channel_info_start",
"Channel : Ti",
"Points : 0",
"Range : 0.000000 - 0.000000",
"Step : 0.010000",
"Channel_info_end",
"Channel_info_start",
"Channel : V ",
"Points : 0",
"Range : 0.000000 - 0.000000",
"Step : 0.010000",
"Channel_info_end",
"Channel_info_start",
"Channel : Cr",
"Points : 0",
"Range : 0.000000 - 0.000000",
"Step : 0.010000",
"Channel_info_end",
"Channel_info_start",
"Channel : Mn",
"Points : 0",
"Range : 0.000000 - 0.000000",
"Step : 0.010000",
"Channel_info_end",
"Channel_info_start",
"Channel : Fe",
"Points : 0",
"Range : 0.000000 - 0.000000",
"Step : 0.010000",
"Channel_info_end",
"Channel_info_start",
"Channel : Cu",
"Points : 0",
"Range : 0.000000 - 0.000000",
"Step : 0.010000",
"Channel_info_end",
"Channel_info_start",
"Channel : Zn",
"Points : 0",
"Range : 0.000000 - 0.000000",
"Step : 0.010000",
"Channel_info_end",
"Channel_info_start",
"Channel : Sr",
"Points : 0",
"Range : 0.000000 - 0.000000",
"Step : 0.010000",
"Channel_info_end",
"Channel_info_start",
"Channel : Pb",
"Points : 0",
"Range : 0.000000 - 0.000000",
"Step : 0.010000",
"Channel_info_end",
"",
"Qualitative Result",
"--------------------------------------------------------------------------------",
"Element :  Bi, Ru, Ca",
"",
"Peak List",
"--------------------------------------------------------------------------------",
"Channel               Line        keV     Net Int.(cps/uA)",
"--------------------------------------------------------------------------------",
"Na                    ----         0.69     0.024",
"                      ----         0.79     0.019",
"                      ----         1.90     0.085",
"                      ----         2.21     0.045",
"                      BiMa         2.44     1.684",
"                      RuLb1        2.74     0.155",
"                      ----         3.22     0.065",
"                      CaKa         3.69     0.288",
"                      CaKb         4.03     0.038",
"                      ----         5.73     0.034",
"                      BiLL         9.42     0.363",
"                      BiLa        10.84     5.965",
"                      ----        11.72     0.095",
"                      BiLb4       12.64     0.096",
"                      BiLb1       13.01     4.042",
"                      ----        13.40     0.125",
"                      BiLg1       15.24     0.597",
"                      BiLg2       15.64     0.163",
"                      RuKa        19.17     0.146",
"                      ----        19.47     0.063",
"                      ----        19.95     0.074",
"--------------------------------------------------------------------------------",
"",
"Quantitative Result",
"--------------------------------------------------------------------------------",
"Analyte               Result             Std.Dev. Proc.-Calc. Line Intensity(cps/uA)",
"--------------------------------------------------------------------------------",
"====[No. 1 Layer]====< Layer1               >===============================",
"Layer1                   0.000 ug/cm2    -------- Flux       -------- --------",

File: CaF2 31496.20100525205545.csv
"Sample    : CaF2 31496",
"Operator  : luisf",
"Comment  : cubatao-g-policarbonato",
"Group     : kerr2007ag180cal_lt",
"Date       : 2010-05-25 20:51:34",
"",
"Mesurement Condition",
"------------------------------------------------------------------------------------",
"Instrument : 700HS2   Atmosphere : Vac.   Collimator : 10(mm)   Spin : No",
"------------------------------------------------------------------------------------",
"Analyte               TG kV   uA      FI Acq.(keV)  Anal.(keV)  Time(sec)     DT(%)",
"------------------------------------------------------------------------------------",
"Na                    Rh 50  500-Auto Al  0 - 20    0.8 - 1.2   Live -  179   14",
"",
"<Profile>",
"Channel_info_start",
"Channel : Na",
"Points : 2048",
"Range : 0.000000 - 20.48",
"Step : 0.010000",
"Channel_info_end",
"0",
"0",
"0",
"0",
"1",
"33",
"29",
"24",
"25",
"25",
"35",
"25",
"35",
"26",
"21",
"21",
"30",
"37",
"29",
"32",
"32",
"45",
"44",
"27",
"77",
"158",
"121",
"196",
"411",
"235",
"60",
"59",
"77",
"52",
"29",
"48",
"44",
"37",
"46",
"41",
"41",
"70",
"94",
"111",
"122",
"146",
"138",
"155",
"163",
"188",
"308",
"2798",
"17825",
"26317",
"7264",
"665",
"1103",
"3388",
"2467",
"529",
"76",
"48",
"65",
"77",
"96",
"118",
"76",
"81",
"88",
"78",
"77",
"64",
"79",
"71",
"73",
"59",
"59",
"75",
"71",
"75",
"82",
"95",
"92",
"108",
"115",
"110",
"127",
"110",
"131",
"175",
"143",
"169",
"177",
"131",
"143",
"158",
"155",
"178",
"198",
"181",
"163",
"207",
"181",
"184",
"186",
"201",
"188",
"188",
"173",
"150",
"144",
"166",
"181",
"199",
"287",
"435",
"503",
"439",
"260",
"232",
"175",
"190",
"252",
"288",
"247",
"185",
"180",
"189",
"160",
"165",
"157",
"215",
"303",
"356",
"341",
"263",
"232",
"214",
"206",
"195",
"166",
"195",
"156",
"180",
"172",
"151",
"176",
"174",
"160",
"163",
"173",
"189",
"161",
"190",
"162",
"187",
"197",
"183",
"177",
"150",
"174",
"184",
"161",
"164",
"138",
"160",
"149",
"146",
"147",
"174",
"152",
"157",
"168",
"172",
"145",
"138",
"161",
"134",
"147",
"131",
"146",
"148",
"139",
"153",
"152",
"149",
"133",
"148",
"165",
"106",
"116",
"126",
"129",
"141",
"133",
"143",
"134",
"133",
"128",
"124",
"132",
"124",
"144",
"131",
"125",
"140",
"120",
"122",
"135",
"148",
"134",
"126",
"126",
"126",
"109",
"126",
"127",
"165",
"103",
"120",
"119",
"138",
"111",
"121",
"119",
"109",
"124",
"97",
"110",
"113",
"115",
"116",
"123",
"112",
"103",
"94",
"100",
"111",
"121",
"118",
"91",
"121",
"125",
"102",
"111",
"94",
"99",
"111",
"98",
"122",
"94",
"95",
"119",
"119",
"104",
"89",
"113",
"112",
"115",
"143",
"110",
"135",
"125",
"150",
"134",
"175",
"153",
"203",
"271",
"331",
"404",
"556",
"620",
"677",
"696",
"745",
"628",
"526",
"405",
"291",
"255",
"186",
"169",
"144",
"174",
"245",
"291",
"293",
"267",
"211",
"126",
"94",
"92",
"50003",
"Channel_info_start",
"Channel : Mg",
"Points : 0",
"Range : 0.000000 - 0.000000",
"Step : 0.010000",
"Channel_info_end",
"Channel_info_start",
"Channel : Al",
"Points : 0",
"Range : 0.000000 - 0.000000",
"Step : 0.010000",
"Channel_info_end",
"Channel_info_start",
"Channel : Si",
"Points : 0",
"Range : 0.000000 - 0.000000",
"Step : 0.010000",
"Channel_info_end",
"Channel_info_start",
"Channel : P ",
"Points : 0",
"Range : 0.000000 - 0.000000",
"Step : 0.010000",
"Channel_info_end",
"Channel_info_start",
"Channel : S ",
"Points : 0",
"Range : 0.000000 - 0.000000",
"Step : 0.010000",
"Channel_info_end",
"Channel_info_start",
"Channel : Cl",
"Points : 0",
"Range : 0.000000 - 0.000000",
"Step : 0.010000",
"Channel_info_end",
"Channel_info_start",
"Channel : K ",
"Points : 0",
"Range : 0.000000 - 0.000000",
"Step : 0.010000",
"Channel_info_end",
"Channel_info_start",
"Channel : Ca",
"Points : 0",
"Range : 0.000000 - 0.000000",
"Step : 0.010000",
"Channel_info_end",
"Channel_info_start",
"Channel : Ti",
"Points : 0",
"Range : 0.000000 - 0.000000",
"Step : 0.010000",
"Channel_info_end",
"Channel_info_start",
"Channel : V ",
"Points : 0",
"Range : 0.000000 - 0.000000",
"Step : 0.010000",
"Channel_info_end",
"Channel_info_start",
"Channel : Cr",
"Points : 0",
"Range : 0.000000 - 0.000000",
"Step : 0.010000",
"Channel_info_end",
"Channel_info_start",
"Channel : Mn",
"Points : 0",
"Range : 0.000000 - 0.000000",
"Step : 0.010000",
"Channel_info_end",
"Channel_info_start",
"Channel : Fe",
"Points : 0",
"Range : 0.000000 - 0.000000",
"Step : 0.010000",
"Channel_info_end",
"Channel_info_start",
"Channel : Cu",
"Points : 0",
"Range : 0.000000 - 0.000000",
"Step : 0.010000",
"Channel_info_end",
"Channel_info_start",
"Channel : Zn",
"Points : 0",
"Range : 0.000000 - 0.000000",
"Step : 0.010000",
"Channel_info_end",
"Channel_info_start",
"Channel : Sr",
"Points : 0",
"Range : 0.000000 - 0.000000",
"Step : 0.010000",
"Channel_info_end",
"Channel_info_start",
"Channel : Pb",
"Points : 0",
"Range : 0.000000 - 0.000000",
"Step : 0.010000",
"Channel_info_end",
"",
"Qualitative Result",
"--------------------------------------------------------------------------------",
"Element :  Ta, P , Ca, Ru",
"",
"Peak List",
"--------------------------------------------------------------------------------",
"Channel               Line        keV     Net Int.(cps/uA)",
"--------------------------------------------------------------------------------",
"Na                    TaMa         1.73     0.013",
"                      P Ka         1.96     0.048",
"                      CaKa         3.69     4.186",
"                      CaKb         4.00     0.520",
"                      TaLa         8.15     0.063",
"                      TaLb1        9.32     0.043",
"                      RuKa        19.24     0.137",
"                      ----        19.96     0.032",
"--------------------------------------------------------------------------------",
"",
"Quantitative Result",
"--------------------------------------------------------------------------------",
"Analyte               Result             Std.Dev. Proc.-Calc. Line Intensity(cps/uA)",
"--------------------------------------------------------------------------------",
"====[No. 1 Layer]====< Layer1               >===============================",
"Layer1                   0.000 ug/cm2    -------- Flux       -------- --------",

File: CaF2 31496.20100611000040.csv
"Sample    : CaF2 31496",
"Operator  : thiago",
"Comment  : cubatao-g-policarbonato",
"Group     : kerr2007ag180cal_lt",
"Date       : 2010-06-10 23:56:27",
"",
"Mesurement Condition",
"------------------------------------------------------------------------------------",
"Instrument : 700HS2   Atmosphere : Vac.   Collimator : 10(mm)   Spin : No",
"------------------------------------------------------------------------------------",
"Analyte               TG kV   uA      FI Acq.(keV)  Anal.(keV)  Time(sec)     DT(%)",
"------------------------------------------------------------------------------------",
"Na                    Rh 50  548-Auto Al  0 - 20    0.8 - 1.2   Live -  179   16",
"",
"<Profile>",
"Channel_info_start",
"Channel : Na",
"Points : 2048",
"Range : 0.000000 - 20.48",
"Step : 0.010000",
"Channel_info_end",
"0",
"0",
"0",
"0",
"1",
"39",
"24",
"35",
"31",
"31",
"27",
"25",
"36",
"28",
"32",
"31",
"32",
"27",
"30",
"42",
"50",
"35",
"38",
"54",
"103",
"161",
"126",
"238",
"411",
"282",
"80",
"62",
"78",
"66",
"37",
"39",
"30",
"56",
"49",
"49",
"59",
"69",
"92",
"94",
"127",
"184",
"159",
"204",
"194",
"228",
"374",
"3016",
"19291",
"28240",
"7791",
"745",
"1248",
"3781",
"2691",
"530",
"67",
"49",
"73",
"99",
"105",
"113",
"116",
"116",
"79",
"102",
"77",
"72",
"83",
"82",
"78",
"83",
"90",
"78",
"88",
"105",
"111",
"96",
"88",
"101",
"129",
"126",
"134",
"158",
"156",
"165",
"180",
"222",
"195",
"171",
"156",
"180",
"159",
"191",
"191",
"206",
"170",
"213",
"210",
"191",
"191",
"200",
"195",
"217",
"164",
"184",
"183",
"171",
"194",
"213",
"282",
"458",
"591",
"452",
"308",
"194",
"172",
"209",
"231",
"280",
"278",
"196",
"170",
"211",
"199",
"179",
"192",
"219",
"264",
"383",
"372",
"301",
"250",
"244",
"226",
"197",
"187",
"196",
"192",
"188",
"188",
"186",
"170",
"167",
"184",
"207",
"175",
"196",
"198",
"206",
"206",
"223",
"221",
"180",
"177",
"174",
"181",
"184",
"188",
"170",
"170",
"179",
"151",
"167",
"170",
"152",
"172",
"179",
"164",
"183",
"150",
"164",
"153",
"179",
"160",
"181",
"145",
"158",
"172",
"158",
"135",
"168",
"182",
"163",
"133",
"151",
"138",
"150",
"144",
"159",
"140",
"157",
"121",
"138",
"125",
"172",
"126",
"134",
"119",
"144",
"151",
"137",
"118",
"144",
"133",
"159",
"168",
"130",
"145",
"128",
"129",
"130",
"139",
"128",
"117",
"100",
"115",
"110",
"126",
"136",
"138",
"123",
"130",
"115",
"134",
"92",
"93",
"98",
"106",
"113",
"107",
"124",
"121",
"117",
"110",
"134",
"114",
"126",
"107",
"101",
"118",
"110",
"105",
"117",
"118",
"101",
"105",
"94",
"115",
"116",
"91",
"116",
"138",
"108",
"127",
"122",
"124",
"116",
"118",
"131",
"161",
"190",
"210",
"245",
"276",
"341",
"454",
"609",
"695",
"742",
"782",
"769",
"712",
"578",
"458",
"334",
"285",
"172",
"140",
"173",
"213",
"264",
"300",
"337",
"331",
"232",
"156",
"112",
"98",
"55098",
"Channel_info_start",
"Channel : Mg",
"Points : 0",
"Range : 0.000000 - 0.000000",
"Step : 0.010000",
"Channel_info_end",
"Channel_info_start",
"Channel : Al",
"Points : 0",
"Range : 0.000000 - 0.000000",
"Step : 0.010000",
"Channel_info_end",
"Channel_info_start",
"Channel : Si",
"Points : 0",
"Range : 0.000000 - 0.000000",
"Step : 0.010000",
"Channel_info_end",
"Channel_info_start",
"Channel : P ",
"Points : 0",
"Range : 0.000000 - 0.000000",
"Step : 0.010000",
"Channel_info_end",
"Channel_info_start",
"Channel : S ",
"Points : 0",
"Range : 0.000000 - 0.000000",
"Step : 0.010000",
"Channel_info_end",
"Channel_info_start",
"Channel : Cl",
"Points : 0",
"Range : 0.000000 - 0.000000",
"Step : 0.010000",
"Channel_info_end",
"Channel_info_start",
"Channel : K ",
"Points : 0",
"Range : 0.000000 - 0.000000",
"Step : 0.010000",
"Channel_info_end",
"Channel_info_start",
"Channel : Ca",
"Points : 0",
"Range : 0.000000 - 0.000000",
"Step : 0.010000",
"Channel_info_end",
"Channel_info_start",
"Channel : Ti",
"Points : 0",
"Range : 0.000000 - 0.000000",
"Step : 0.010000",
"Channel_info_end",
"Channel_info_start",
"Channel : V ",
"Points : 0",
"Range : 0.000000 - 0.000000",
"Step : 0.010000",
"Channel_info_end",
"Channel_info_start",
"Channel : Cr",
"Points : 0",
"Range : 0.000000 - 0.000000",
"Step : 0.010000",
"Channel_info_end",
"Channel_info_start",
"Channel : Mn",
"Points : 0",
"Range : 0.000000 - 0.000000",
"Step : 0.010000",
"Channel_info_end",
"Channel_info_start",
"Channel : Fe",
"Points : 0",
"Range : 0.000000 - 0.000000",
"Step : 0.010000",
"Channel_info_end",
"Channel_info_start",
"Channel : Cu",
"Points : 0",
"Range : 0.000000 - 0.000000",
"Step : 0.010000",
"Channel_info_end",
"Channel_info_start",
"Channel : Zn",
"Points : 0",
"Range : 0.000000 - 0.000000",
"Step : 0.010000",
"Channel_info_end",
"Channel_info_start",
"Channel : Sr",
"Points : 0",
"Range : 0.000000 - 0.000000",
"Step : 0.010000",
"Channel_info_end",
"Channel_info_start",
"Channel : Pb",
"Points : 0",
"Range : 0.000000 - 0.000000",
"Step : 0.010000",
"Channel_info_end",
"",
"Qualitative Result",
"--------------------------------------------------------------------------------",
"Element :  Ta, P , Ca, Sc, Ru",
"",
"Peak List",
"--------------------------------------------------------------------------------",
"Channel               Line        keV     Net Int.(cps/uA)",
"--------------------------------------------------------------------------------",
"Na                    TaMa         1.74     0.013",
"                      P Ka         1.95     0.048",
"                      CaKa         3.68     4.112",
"                      CaKb         4.02     0.513",
"                      ScKa         4.09     0.069",
"                      ScKb         4.53     0.010",
"                      TaLa         8.12     0.068",
"                      TaLb1        9.35     0.033",
"                      RuKa        19.20     0.141",
"                      ----        19.97     0.038",
"--------------------------------------------------------------------------------",
"",
"Quantitative Result",
"--------------------------------------------------------------------------------",
"Analyte               Result             Std.Dev. Proc.-Calc. Line Intensity(cps/uA)",
"--------------------------------------------------------------------------------",
"====[No. 1 Layer]====< Layer1               >===============================",
"Layer1                   0.000 ug/cm2    -------- Flux       -------- --------",

File: Cr 15756.20100525211617.csv
"Sample    : Cr 15756",
"Operator  : luisf",
"Comment  : cubatao-g-policarbonato",
"Group     : kerr2007ag180cal_lt",
"Date       : 2010-05-25 21:12:17",
"",
"Mesurement Condition",
"------------------------------------------------------------------------------------",
"Instrument : 700HS2   Atmosphere : Vac.   Collimator : 10(mm)   Spin : No",
"------------------------------------------------------------------------------------",
"Analyte               TG kV   uA      FI Acq.(keV)  Anal.(keV)  Time(sec)     DT(%)",
"------------------------------------------------------------------------------------",
"Na                    Rh 50  210-Auto Al  0 - 20    0.8 - 1.2   Live -  180   14",
"",
"<Profile>",
"Channel_info_start",
"Channel : Na",
"Points : 2048",
"Range : 0.000000 - 20.48",
"Step : 0.010000",
"Channel_info_end",
"0",
"0",
"0",
"0",
"0",
"16",
"13",
"13",
"17",
"20",
"12",
"8",
"9",
"12",
"9",
"14",
"10",
"21",
"9",
"13",
"12",
"16",
"12",
"16",
"20",
"26",
"17",
"17",
"44",
"57",
"23",
"21",
"23",
"28",
"21",
"17",
"11",
"13",
"15",
"17",
"18",
"15",
"14",
"20",
"16",
"20",
"17",
"28",
"34",
"25",
"51",
"137",
"458",
"598",
"170",
"70",
"57",
"102",
"73",
"44",
"63",
"54",
"42",
"63",
"74",
"99",
"73",
"79",
"80",
"63",
"65",
"102",
"106",
"159",
"229",
"1418",
"12069",
"32590",
"23743",
"5378",
"408",
"138",
"174",
"730",
"2793",
"4353",
"1960",
"424",
"74",
"59",
"62",
"94",
"70",
"78",
"91",
"60",
"92",
"72",
"89",
"73",
"74",
"56",
"64",
"74",
"73",
"62",
"54",
"82",
"54",
"69",
"72",
"75",
"63",
"94",
"84",
"72",
"85",
"70",
"64",
"72",
"85",
"73",
"105",
"108",
"117",
"90",
"86",
"72",
"51",
"76",
"51",
"77",
"54",
"64",
"78",
"69",
"73",
"64",
"86",
"60",
"74",
"93",
"101",
"67",
"79",
"82",
"84",
"87",
"86",
"79",
"78",
"59",
"74",
"75",
"107",
"104",
"82",
"65",
"66",
"87",
"68",
"82",
"76",
"84",
"74",
"75",
"65",
"64",
"66",
"66",
"65",
"63",
"56",
"66",
"54",
"76",
"75",
"56",
"55",
"91",
"68",
"66",
"68",
"59",
"80",
"61",
"76",
"59",
"66",
"59",
"60",
"65",
"48",
"59",
"52",
"62",
"74",
"76",
"50",
"66",
"56",
"64",
"70",
"60",
"52",
"60",
"50",
"61",
"59",
"44",
"55",
"54",
"54",
"56",
"51",
"57",
"49",
"62",
"40",
"40",
"54",
"53",
"43",
"48",
"44",
"46",
"48",
"42",
"51",
"41",
"59",
"61",
"40",
"34",
"54",
"51",
"47",
"39",
"43",
"52",
"38",
"38",
"42",
"50",
"46",
"48",
"37",
"47",
"36",
"35",
"51",
"41",
"37",
"54",
"43",
"53",
"61",
"43",
"35",
"63",
"43",
"70",
"72",
"56",
"65",
"79",
"68",
"85",
"92",
"128",
"181",
"213",
"280",
"287",
"303",
"301",
"226",
"237",
"208",
"120",
"118",
"81",
"65",
"64",
"92",
"115",
"128",
"134",
"140",
"91",
"47",
"46",
"34",
"21152",
"Channel_info_start",
"Channel : Mg",
"Points : 0",
"Range : 0.000000 - 0.000000",
"Step : 0.010000",
"Channel_info_end",
"Channel_info_start",
"Channel : Al",
"Points : 0",
"Range : 0.000000 - 0.000000",
"Step : 0.010000",
"Channel_info_end",
"Channel_info_start",
"Channel : Si",
"Points : 0",
"Range : 0.000000 - 0.000000",
"Step : 0.010000",
"Channel_info_end",
"Channel_info_start",
"Channel : P ",
"Points : 0",
"Range : 0.000000 - 0.000000",
"Step : 0.010000",
"Channel_info_end",
"Channel_info_start",
"Channel : S ",
"Points : 0",
"Range : 0.000000 - 0.000000",
"Step : 0.010000",
"Channel_info_end",
"Channel_info_start",
"Channel : Cl",
"Points : 0",
"Range : 0.000000 - 0.000000",
"Step : 0.010000",
"Channel_info_end",
"Channel_info_start",
"Channel : K ",
"Points : 0",
"Range : 0.000000 - 0.000000",
"Step : 0.010000",
"Channel_info_end",
"Channel_info_start",
"Channel : Ca",
"Points : 0",
"Range : 0.000000 - 0.000000",
"Step : 0.010000",
"Channel_info_end",
"Channel_info_start",
"Channel : Ti",
"Points : 0",
"Range : 0.000000 - 0.000000",
"Step : 0.010000",
"Channel_info_end",
"Channel_info_start",
"Channel : V ",
"Points : 0",
"Range : 0.000000 - 0.000000",
"Step : 0.010000",
"Channel_info_end",
"Channel_info_start",
"Channel : Cr",
"Points : 0",
"Range : 0.000000 - 0.000000",
"Step : 0.010000",
"Channel_info_end",
"Channel_info_start",
"Channel : Mn",
"Points : 0",
"Range : 0.000000 - 0.000000",
"Step : 0.010000",
"Channel_info_end",
"Channel_info_start",
"Channel : Fe",
"Points : 0",
"Range : 0.000000 - 0.000000",
"Step : 0.010000",
"Channel_info_end",
"Channel_info_start",
"Channel : Cu",
"Points : 0",
"Range : 0.000000 - 0.000000",
"Step : 0.010000",
"Channel_info_end",
"Channel_info_start",
"Channel : Zn",
"Points : 0",
"Range : 0.000000 - 0.000000",
"Step : 0.010000",
"Channel_info_end",
"Channel_info_start",
"Channel : Sr",
"Points : 0",
"Range : 0.000000 - 0.000000",
"Step : 0.010000",
"Channel_info_end",
"Channel_info_start",
"Channel : Pb",
"Points : 0",
"Range : 0.000000 - 0.000000",
"Step : 0.010000",
"Channel_info_end",
"",
"Qualitative Result",
"--------------------------------------------------------------------------------",
"Element :  P , Cr, Ru",
"",
"Peak List",
"--------------------------------------------------------------------------------",
"Channel               Line        keV     Net Int.(cps/uA)",
"--------------------------------------------------------------------------------",
"Na                    P Ka         2.01     0.013",
"                      ----         3.68     0.235",
"                      CrKa         5.40    13.629",
"                      CrKb         5.94     1.739",
"                      RuKa        19.27     0.144",
"--------------------------------------------------------------------------------",
"",
"Quantitative Result",
"--------------------------------------------------------------------------------",
"Analyte               Result             Std.Dev. Proc.-Calc. Line Intensity(cps/uA)",
"--------------------------------------------------------------------------------",
"====[No. 1 Layer]====< Layer1               >===============================",
"Layer1                   0.000 ug/cm2    -------- Flux       -------- --------",