Folder: mestrado_ifusp/inputs/edxCalibration/edx_raw/2010/junho (part 7)

File: Cu 31521.20100611011417.csv
"Sample    : Cu 31521",
"Operator  : Luís",
"Comment  : cubatao-g-policarbonato",
"Group     : kerr2007ag180cal_lt",
"Date       : 2010-06-11 01:10:15",
"",
"Mesurement Condition",
"------------------------------------------------------------------------------------",
"Instrument : 700HS2   Atmosphere : Vac.   Collimator : 10(mm)   Spin : No",
"------------------------------------------------------------------------------------",
"Analyte               TG kV   uA      FI Acq.(keV)  Anal.(keV)  Time(sec)     DT(%)",
"------------------------------------------------------------------------------------",
"Na                    Rh 50  152-Auto Al  0 - 20    0.8 - 1.2   Live -  179   15",
"",
"<Profile>",
"Channel_info_start",
"Channel : Na",
"Points : 2048",
"Range : 0.000000 - 20.48",
"Step : 0.010000",
"Channel_info_end",
"0",
"0",
"0",
"0",
"0",
"12",
"9",
"9",
"11",
"9",
"8",
"16",
"42",
"212",
"172",
"59",
"18",
"7",
"10",
"13",
"13",
"14",
"14",
"17",
"8",
"15",
"20",
"12",
"45",
"54",
"20",
"12",
"18",
"14",
"13",
"12",
"7",
"20",
"9",
"12",
"11",
"3",
"16",
"7",
"13",
"11",
"9",
"11",
"12",
"15",
"17",
"86",
"407",
"551",
"151",
"43",
"49",
"102",
"63",
"23",
"10",
"16",
"26",
"29",
"36",
"33",
"26",
"37",
"23",
"27",
"17",
"25",
"30",
"27",
"33",
"38",
"27",
"18",
"38",
"30",
"39",
"28",
"42",
"41",
"34",
"58",
"47",
"79",
"71",
"98",
"132",
"102",
"76",
"56",
"41",
"54",
"60",
"58",
"64",
"59",
"58",
"78",
"65",
"79",
"70",
"87",
"91",
"84",
"81",
"113",
"112",
"218",
"1100",
"8079",
"23414",
"30062",
"15082",
"3364",
"383",
"129",
"96",
"114",
"104",
"157",
"277",
"851",
"2418",
"4065",
"3062",
"897",
"201",
"83",
"53",
"52",
"50",
"71",
"71",
"56",
"63",
"50",
"54",
"55",
"59",
"59",
"51",
"46",
"49",
"54",
"58",
"56",
"43",
"41",
"35",
"59",
"54",
"53",
"48",
"48",
"59",
"63",
"36",
"43",
"38",
"41",
"56",
"49",
"47",
"35",
"48",
"42",
"38",
"41",
"40",
"39",
"43",
"45",
"46",
"45",
"47",
"42",
"39",
"55",
"42",
"48",
"54",
"45",
"29",
"55",
"34",
"45",
"50",
"42",
"45",
"29",
"42",
"40",
"33",
"36",
"40",
"42",
"40",
"39",
"42",
"35",
"39",
"31",
"37",
"47",
"29",
"26",
"31",
"42",
"37",
"30",
"45",
"45",
"33",
"36",
"31",
"30",
"42",
"25",
"36",
"37",
"49",
"31",
"31",
"31",
"72",
"88",
"84",
"74",
"43",
"34",
"26",
"37",
"34",
"28",
"46",
"36",
"34",
"34",
"58",
"43",
"37",
"31",
"43",
"63",
"55",
"54",
"48",
"48",
"31",
"41",
"27",
"37",
"34",
"30",
"26",
"25",
"42",
"38",
"40",
"31",
"48",
"54",
"47",
"56",
"78",
"117",
"136",
"162",
"163",
"222",
"232",
"176",
"185",
"157",
"130",
"78",
"71",
"60",
"68",
"46",
"56",
"92",
"102",
"117",
"91",
"63",
"33",
"25",
"23",
"15293",
"Channel_info_start",
"Channel : Mg",
"Points : 0",
"Range : 0.000000 - 0.000000",
"Step : 0.010000",
"Channel_info_end",
"Channel_info_start",
"Channel : Al",
"Points : 0",
"Range : 0.000000 - 0.000000",
"Step : 0.010000",
"Channel_info_end",
"Channel_info_start",
"Channel : Si",
"Points : 0",
"Range : 0.000000 - 0.000000",
"Step : 0.010000",
"Channel_info_end",
"Channel_info_start",
"Channel : P ",
"Points : 0",
"Range : 0.000000 - 0.000000",
"Step : 0.010000",
"Channel_info_end",
"Channel_info_start",
"Channel : S ",
"Points : 0",
"Range : 0.000000 - 0.000000",
"Step : 0.010000",
"Channel_info_end",
"Channel_info_start",
"Channel : Cl",
"Points : 0",
"Range : 0.000000 - 0.000000",
"Step : 0.010000",
"Channel_info_end",
"Channel_info_start",
"Channel : K ",
"Points : 0",
"Range : 0.000000 - 0.000000",
"Step : 0.010000",
"Channel_info_end",
"Channel_info_start",
"Channel : Ca",
"Points : 0",
"Range : 0.000000 - 0.000000",
"Step : 0.010000",
"Channel_info_end",
"Channel_info_start",
"Channel : Ti",
"Points : 0",
"Range : 0.000000 - 0.000000",
"Step : 0.010000",
"Channel_info_end",
"Channel_info_start",
"Channel : V ",
"Points : 0",
"Range : 0.000000 - 0.000000",
"Step : 0.010000",
"Channel_info_end",
"Channel_info_start",
"Channel : Cr",
"Points : 0",
"Range : 0.000000 - 0.000000",
"Step : 0.010000",
"Channel_info_end",
"Channel_info_start",
"Channel : Mn",
"Points : 0",
"Range : 0.000000 - 0.000000",
"Step : 0.010000",
"Channel_info_end",
"Channel_info_start",
"Channel : Fe",
"Points : 0",
"Range : 0.000000 - 0.000000",
"Step : 0.010000",
"Channel_info_end",
"Channel_info_start",
"Channel : Cu",
"Points : 0",
"Range : 0.000000 - 0.000000",
"Step : 0.010000",
"Channel_info_end",
"Channel_info_start",
"Channel : Zn",
"Points : 0",
"Range : 0.000000 - 0.000000",
"Step : 0.010000",
"Channel_info_end",
"Channel_info_start",
"Channel : Sr",
"Points : 0",
"Range : 0.000000 - 0.000000",
"Step : 0.010000",
"Channel_info_end",
"Channel_info_start",
"Channel : Pb",
"Points : 0",
"Range : 0.000000 - 0.000000",
"Step : 0.010000",
"Channel_info_end",
"",
"Qualitative Result",
"--------------------------------------------------------------------------------",
"Element :  Cu, P , Ca, Ru",
"",
"Peak List",
"--------------------------------------------------------------------------------",
"Channel               Line        keV     Net Int.(cps/uA)",
"--------------------------------------------------------------------------------",
"Na                    CuLa         0.94     0.095",
"                      P Ka         1.98     0.023",
"                      CaKa         3.68     0.287",
"                      CaKb         4.00     0.036",
"                      CuKaESC      6.29     0.050",
"                      CuKa         8.04    19.208",
"                      CuKb         8.88     2.576",
"                      CuKaSUM     16.03     0.043",
"                      RuKa        19.19     0.141",
"                      ----        19.44     0.057",
"                      ----        19.99     0.064",
"--------------------------------------------------------------------------------",
"",
"Quantitative Result",
"--------------------------------------------------------------------------------",
"Analyte               Result             Std.Dev. Proc.-Calc. Line Intensity(cps/uA)",
"--------------------------------------------------------------------------------",
"====[No. 1 Layer]====< Layer1               >===============================",
"Layer1                   0.000 ug/cm2    -------- Flux       -------- --------",

File: DyF3 31517.20100626154339.csv
"Sample    : DyF3 31517",
"Operator  : luis",
"Comment  : cubatao-g-policarbonato",
"Group     : kerr2007ag180cal_lt",
"Date       : 2010-06-26 15:39:36",
"",
"Mesurement Condition",
"------------------------------------------------------------------------------------",
"Instrument : 700HS2   Atmosphere : Vac.   Collimator : 10(mm)   Spin : No",
"------------------------------------------------------------------------------------",
"Analyte               TG kV   uA      FI Acq.(keV)  Anal.(keV)  Time(sec)     DT(%)",
"------------------------------------------------------------------------------------",
"Na                    Rh 50  268-Auto Al  0 - 20    0.8 - 1.2   Live -  179   15",
"",
"<Profile>",
"Channel_info_start",
"Channel : Na",
"Points : 2048",
"Range : 0.000000 - 20.48",
"Step : 0.010000",
"Channel_info_end",
"0",
"0",
"0",
"0",
"0",
"18",
"14",
"21",
"17",
"27",
"17",
"14",
"21",
"35",
"93",
"97",
"41",
"80",
"519",
"1187",
"423",
"98",
"117",
"74",
"85",
"88",
"36",
"30",
"73",
"100",
"30",
"17",
"24",
"20",
"15",
"25",
"14",
"15",
"30",
"24",
"27",
"27",
"16",
"25",
"17",
"18",
"20",
"30",
"20",
"26",
"30",
"122",
"670",
"992",
"319",
"68",
"77",
"149",
"131",
"57",
"36",
"41",
"48",
"58",
"62",
"74",
"64",
"101",
"134",
"71",
"45",
"72",
"60",
"57",
"65",
"57",
"67",
"102",
"99",
"111",
"147",
"428",
"677",
"539",
"178",
"115",
"124",
"134",
"154",
"160",
"449",
"3131",
"10768",
"14440",
"6454",
"1293",
"236",
"148",
"161",
"186",
"215",
"635",
"3050",
"7681",
"7841",
"4270",
"1829",
"1012",
"1636",
"2425",
"1733",
"665",
"195",
"138",
"156",
"171",
"225",
"256",
"335",
"800",
"1353",
"1130",
"510",
"419",
"627",
"668",
"403",
"223",
"222",
"192",
"152",
"139",
"129",
"121",
"136",
"140",
"125",
"131",
"123",
"134",
"109",
"102",
"126",
"129",
"110",
"90",
"118",
"97",
"111",
"117",
"120",
"114",
"112",
"103",
"109",
"104",
"106",
"124",
"101",
"117",
"121",
"125",
"114",
"114",
"104",
"108",
"88",
"111",
"114",
"90",
"106",
"106",
"91",
"78",
"92",
"109",
"97",
"98",
"106",
"115",
"92",
"90",
"90",
"78",
"99",
"109",
"86",
"102",
"92",
"84",
"93",
"96",
"104",
"95",
"84",
"95",
"97",
"91",
"83",
"106",
"85",
"80",
"57",
"88",
"88",
"73",
"64",
"74",
"83",
"83",
"73",
"87",
"91",
"78",
"74",
"76",
"81",
"74",
"85",
"93",
"79",
"78",
"70",
"77",
"87",
"72",
"62",
"58",
"79",
"62",
"61",
"74",
"61",
"62",
"55",
"47",
"68",
"52",
"62",
"61",
"67",
"66",
"63",
"57",
"53",
"61",
"67",
"57",
"66",
"59",
"72",
"61",
"76",
"64",
"65",
"74",
"91",
"59",
"65",
"61",
"66",
"79",
"80",
"76",
"84",
"84",
"108",
"111",
"128",
"160",
"226",
"253",
"375",
"351",
"412",
"401",
"389",
"325",
"253",
"196",
"137",
"111",
"99",
"109",
"142",
"211",
"235",
"285",
"276",
"178",
"106",
"60",
"61",
"29605",
"Channel_info_start",
"Channel : Mg",
"Points : 0",
"Range : 0.000000 - 0.000000",
"Step : 0.010000",
"Channel_info_end",
"Channel_info_start",
"Channel : Al",
"Points : 0",
"Range : 0.000000 - 0.000000",
"Step : 0.010000",
"Channel_info_end",
"Channel_info_start",
"Channel : Si",
"Points : 0",
"Range : 0.000000 - 0.000000",
"Step : 0.010000",
"Channel_info_end",
"Channel_info_start",
"Channel : P ",
"Points : 0",
"Range : 0.000000 - 0.000000",
"Step : 0.010000",
"Channel_info_end",
"Channel_info_start",
"Channel : S ",
"Points : 0",
"Range : 0.000000 - 0.000000",
"Step : 0.010000",
"Channel_info_end",
"Channel_info_start",
"Channel : Cl",
"Points : 0",
"Range : 0.000000 - 0.000000",
"Step : 0.010000",
"Channel_info_end",
"Channel_info_start",
"Channel : K ",
"Points : 0",
"Range : 0.000000 - 0.000000",
"Step : 0.010000",
"Channel_info_end",
"Channel_info_start",
"Channel : Ca",
"Points : 0",
"Range : 0.000000 - 0.000000",
"Step : 0.010000",
"Channel_info_end",
"Channel_info_start",
"Channel : Ti",
"Points : 0",
"Range : 0.000000 - 0.000000",
"Step : 0.010000",
"Channel_info_end",
"Channel_info_start",
"Channel : V ",
"Points : 0",
"Range : 0.000000 - 0.000000",
"Step : 0.010000",
"Channel_info_end",
"Channel_info_start",
"Channel : Cr",
"Points : 0",
"Range : 0.000000 - 0.000000",
"Step : 0.010000",
"Channel_info_end",
"Channel_info_start",
"Channel : Mn",
"Points : 0",
"Range : 0.000000 - 0.000000",
"Step : 0.010000",
"Channel_info_end",
"Channel_info_start",
"Channel : Fe",
"Points : 0",
"Range : 0.000000 - 0.000000",
"Step : 0.010000",
"Channel_info_end",
"Channel_info_start",
"Channel : Cu",
"Points : 0",
"Range : 0.000000 - 0.000000",
"Step : 0.010000",
"Channel_info_end",
"Channel_info_start",
"Channel : Zn",
"Points : 0",
"Range : 0.000000 - 0.000000",
"Step : 0.010000",
"Channel_info_end",
"Channel_info_start",
"Channel : Sr",
"Points : 0",
"Range : 0.000000 - 0.000000",
"Step : 0.010000",
"Channel_info_end",
"Channel_info_start",
"Channel : Pb",
"Points : 0",
"Range : 0.000000 - 0.000000",
"Step : 0.010000",
"Channel_info_end",
"",
"Qualitative Result",
"--------------------------------------------------------------------------------",
"Element :  Na, Dy, Yb, Si, P , Ca, Ru",
"",
"Peak List",
"--------------------------------------------------------------------------------",
"Channel               Line        keV     Net Int.(cps/uA)",
"--------------------------------------------------------------------------------",
"Na                    NaKa         1.01     0.020",
"                      DyMa         1.32     0.261",
"                      YbMa         1.54     0.019",
"                      SiKa         1.70     0.017",
"                      P Ka         2.02     0.018",
"                      CaKa         3.70     0.283",
"                      CaKb         4.01     0.038",
"                      DyLaESC      4.72     0.020",
"                      DyLL         5.76     0.205",
"                      DyLa         6.49     4.859",
"                      DyLb1        7.25     2.906",
"                      DyLb2        7.64     0.803",
"                      DyLg1        8.40     0.340",
"                      YbLb1        8.40     0.087",
"                      DyLg2        8.72     0.180",
"                      RuKa        19.32     0.121",
"--------------------------------------------------------------------------------",
"",
"Quantitative Result",
"--------------------------------------------------------------------------------",
"Analyte               Result             Std.Dev. Proc.-Calc. Line Intensity(cps/uA)",
"--------------------------------------------------------------------------------",
"====[No. 1 Layer]====< Layer1               >===============================",
"Layer1                  19.159 ug/cm2    -------- Flux       -------- --------",
"Na                      19.159 ug/cm2    -------- ********** -------- --------",

File: Fe 31500.20100525220154.csv
"Sample    : Fe 31500",
"Operator  : luisf",
"Comment  : cubatao-g-policarbonato",
"Group     : kerr2007ag180cal_lt",
"Date       : 2010-05-25 21:57:53",
"",
"Mesurement Condition",
"------------------------------------------------------------------------------------",
"Instrument : 700HS2   Atmosphere : Vac.   Collimator : 10(mm)   Spin : No",
"------------------------------------------------------------------------------------",
"Analyte               TG kV   uA      FI Acq.(keV)  Anal.(keV)  Time(sec)     DT(%)",
"------------------------------------------------------------------------------------",
"Na                    Rh 50  168-Auto Al  0 - 20    0.8 - 1.2   Live -  179   14",
"",
"<Profile>",
"Channel_info_start",
"Channel : Na",
"Points : 2048",
"Range : 0.000000 - 20.48",
"Step : 0.010000",
"Channel_info_end",
"0",
"0",
"0",
"0",
"0",
"11",
"9",
"9",
"11",
"12",
"15",
"32",
"12",
"9",
"13",
"8",
"7",
"10",
"14",
"8",
"17",
"13",
"11",
"14",
"17",
"17",
"18",
"16",
"55",
"58",
"22",
"17",
"9",
"12",
"11",
"12",
"10",
"10",
"17",
"16",
"11",
"23",
"20",
"15",
"15",
"10",
"8",
"14",
"8",
"12",
"20",
"81",
"435",
"627",
"194",
"38",
"58",
"99",
"78",
"34",
"20",
"21",
"23",
"36",
"41",
"67",
"162",
"139",
"75",
"39",
"42",
"40",
"43",
"38",
"46",
"73",
"63",
"78",
"65",
"68",
"67",
"56",
"72",
"66",
"84",
"119",
"97",
"149",
"227",
"1748",
"11793",
"31729",
"26562",
"7536",
"808",
"173",
"147",
"148",
"300",
"1165",
"3365",
"4061",
"1947",
"401",
"87",
"55",
"62",
"52",
"48",
"55",
"45",
"55",
"63",
"68",
"73",
"78",
"56",
"68",
"63",
"51",
"73",
"71",
"64",
"105",
"106",
"77",
"71",
"54",
"71",
"58",
"79",
"48",
"53",
"60",
"32",
"55",
"56",
"58",
"58",
"65",
"63",
"65",
"60",
"49",
"63",
"79",
"70",
"55",
"49",
"46",
"71",
"61",
"67",
"71",
"53",
"41",
"58",
"54",
"66",
"56",
"55",
"50",
"50",
"60",
"59",
"45",
"48",
"60",
"64",
"63",
"52",
"47",
"50",
"39",
"41",
"47",
"61",
"51",
"60",
"66",
"61",
"71",
"85",
"83",
"73",
"56",
"46",
"58",
"61",
"42",
"42",
"58",
"56",
"59",
"49",
"50",
"59",
"63",
"46",
"47",
"52",
"43",
"42",
"54",
"36",
"32",
"43",
"35",
"51",
"51",
"42",
"40",
"46",
"42",
"42",
"53",
"43",
"34",
"40",
"35",
"53",
"49",
"36",
"48",
"46",
"37",
"36",
"33",
"33",
"36",
"45",
"38",
"35",
"25",
"37",
"36",
"42",
"30",
"33",
"43",
"36",
"38",
"33",
"34",
"32",
"39",
"39",
"27",
"35",
"35",
"37",
"39",
"24",
"48",
"35",
"33",
"43",
"30",
"32",
"46",
"35",
"41",
"51",
"50",
"41",
"45",
"58",
"78",
"89",
"111",
"153",
"202",
"202",
"234",
"260",
"229",
"191",
"179",
"131",
"108",
"71",
"60",
"60",
"62",
"77",
"99",
"121",
"111",
"114",
"62",
"30",
"47",
"36",
"16921",
"Channel_info_start",
"Channel : Mg",
"Points : 0",
"Range : 0.000000 - 0.000000",
"Step : 0.010000",
"Channel_info_end",
"Channel_info_start",
"Channel : Al",
"Points : 0",
"Range : 0.000000 - 0.000000",
"Step : 0.010000",
"Channel_info_end",
"Channel_info_start",
"Channel : Si",
"Points : 0",
"Range : 0.000000 - 0.000000",
"Step : 0.010000",
"Channel_info_end",
"Channel_info_start",
"Channel : P ",
"Points : 0",
"Range : 0.000000 - 0.000000",
"Step : 0.010000",
"Channel_info_end",
"Channel_info_start",
"Channel : S ",
"Points : 0",
"Range : 0.000000 - 0.000000",
"Step : 0.010000",
"Channel_info_end",
"Channel_info_start",
"Channel : Cl",
"Points : 0",
"Range : 0.000000 - 0.000000",
"Step : 0.010000",
"Channel_info_end",
"Channel_info_start",
"Channel : K ",
"Points : 0",
"Range : 0.000000 - 0.000000",
"Step : 0.010000",
"Channel_info_end",
"Channel_info_start",
"Channel : Ca",
"Points : 0",
"Range : 0.000000 - 0.000000",
"Step : 0.010000",
"Channel_info_end",
"Channel_info_start",
"Channel : Ti",
"Points : 0",
"Range : 0.000000 - 0.000000",
"Step : 0.010000",
"Channel_info_end",
"Channel_info_start",
"Channel : V ",
"Points : 0",
"Range : 0.000000 - 0.000000",
"Step : 0.010000",
"Channel_info_end",
"Channel_info_start",
"Channel : Cr",
"Points : 0",
"Range : 0.000000 - 0.000000",
"Step : 0.010000",
"Channel_info_end",
"Channel_info_start",
"Channel : Mn",
"Points : 0",
"Range : 0.000000 - 0.000000",
"Step : 0.010000",
"Channel_info_end",
"Channel_info_start",
"Channel : Fe",
"Points : 0",
"Range : 0.000000 - 0.000000",
"Step : 0.010000",
"Channel_info_end",
"Channel_info_start",
"Channel : Cu",
"Points : 0",
"Range : 0.000000 - 0.000000",
"Step : 0.010000",
"Channel_info_end",
"Channel_info_start",
"Channel : Zn",
"Points : 0",
"Range : 0.000000 - 0.000000",
"Step : 0.010000",
"Channel_info_end",
"Channel_info_start",
"Channel : Sr",
"Points : 0",
"Range : 0.000000 - 0.000000",
"Step : 0.010000",
"Channel_info_end",
"Channel_info_start",
"Channel : Pb",
"Points : 0",
"Range : 0.000000 - 0.000000",
"Step : 0.010000",
"Channel_info_end",
"",
"Qualitative Result",
"--------------------------------------------------------------------------------",
"Element :  P , Ca, Fe, Rh",
"",
"Peak List",
"--------------------------------------------------------------------------------",
"Channel               Line        keV     Net Int.(cps/uA)",
"--------------------------------------------------------------------------------",
"Na                    P Ka         2.00     0.022",
"                      CaKa         3.68     0.311",
"                      CaKb         4.00     0.044",
"                      FeKaESC      4.64     0.064",
"                      FeKa         6.40    18.246",
"                      FeKb         7.04     2.392",
"                      RhKaC       19.16     0.127",
"                      ----        19.39     0.085",
"                      RhKa        20.05     0.065",
"--------------------------------------------------------------------------------",
"",
"Quantitative Result",
"--------------------------------------------------------------------------------",
"Analyte               Result             Std.Dev. Proc.-Calc. Line Intensity(cps/uA)",
"--------------------------------------------------------------------------------",
"====[No. 1 Layer]====< Layer1               >===============================",
"Layer1                   0.000 ug/cm2    -------- Flux       -------- --------",

File: GaAs 15758.20100525221803.csv
"Sample    : GaAs 15758",
"Operator  : luisf",
"Comment  : cubatao-g-policarbonato",
"Group     : kerr2007ag180cal_lt",
"Date       : 2010-05-25 22:13:59",
"",
"Mesurement Condition",
"------------------------------------------------------------------------------------",
"Instrument : 700HS2   Atmosphere : Vac.   Collimator : 10(mm)   Spin : No",
"------------------------------------------------------------------------------------",
"Analyte               TG kV   uA      FI Acq.(keV)  Anal.(keV)  Time(sec)     DT(%)",
"------------------------------------------------------------------------------------",
"Na                    Rh 50  152-Auto Al  0 - 20    0.8 - 1.2   Live -  179   15",
"",
"<Profile>",
"Channel_info_start",
"Channel : Na",
"Points : 2048",
"Range : 0.000000 - 20.48",
"Step : 0.010000",
"Channel_info_end",
"0",
"0",
"0",
"0",
"1",
"20",
"21",
"23",
"22",
"17",
"10",
"15",
"15",
"11",
"32",
"91",
"188",
"141",
"646",
"731",
"186",
"34",
"18",
"10",
"9",
"21",
"7",
"7",
"25",
"35",
"20",
"11",
"9",
"13",
"10",
"5",
"7",
"12",
"8",
"16",
"8",
"12",
"14",
"10",
"5",
"13",
"4",
"14",
"11",
"14",
"13",
"71",
"254",
"335",
"103",
"46",
"35",
"61",
"48",
"18",
"22",
"17",
"26",
"21",
"42",
"28",
"34",
"34",
"46",
"23",
"39",
"17",
"30",
"27",
"26",
"24",
"25",
"39",
"22",
"38",
"45",
"39",
"36",
"50",
"50",
"50",
"42",
"58",
"50",
"53",
"57",
"61",
"97",
"71",
"55",
"60",
"72",
"59",
"67",
"73",
"69",
"79",
"72",
"74",
"76",
"66",
"74",
"98",
"86",
"88",
"87",
"65",
"73",
"97",
"80",
"114",
"82",
"76",
"61",
"70",
"74",
"90",
"95",
"124",
"105",
"92",
"121",
"79",
"109",
"284",
"1355",
"4204",
"5588",
"3698",
"1099",
"235",
"87",
"65",
"82",
"83",
"94",
"96",
"83",
"103",
"194",
"462",
"804",
"1320",
"3803",
"11865",
"19522",
"18163",
"8229",
"1953",
"303",
"107",
"74",
"66",
"67",
"79",
"121",
"87",
"98",
"122",
"212",
"706",
"1787",
"2888",
"2625",
"1455",
"519",
"182",
"89",
"59",
"51",
"52",
"51",
"46",
"33",
"46",
"45",
"51",
"41",
"47",
"51",
"45",
"42",
"54",
"50",
"43",
"48",
"53",
"49",
"50",
"45",
"51",
"45",
"38",
"39",
"45",
"54",
"49",
"41",
"62",
"48",
"33",
"24",
"50",
"50",
"59",
"39",
"47",
"43",
"34",
"38",
"43",
"43",
"47",
"37",
"43",
"33",
"38",
"32",
"43",
"47",
"39",
"32",
"37",
"38",
"46",
"38",
"45",
"45",
"40",
"43",
"30",
"43",
"34",
"30",
"27",
"41",
"26",
"35",
"39",
"41",
"39",
"30",
"36",
"47",
"36",
"39",
"34",
"36",
"32",
"27",
"26",
"38",
"36",
"34",
"34",
"38",
"45",
"48",
"47",
"45",
"61",
"54",
"69",
"84",
"107",
"123",
"172",
"222",
"204",
"261",
"250",
"224",
"177",
"137",
"116",
"83",
"71",
"80",
"76",
"78",
"109",
"112",
"134",
"97",
"72",
"49",
"36",
"38",
"17975",
"Channel_info_start",
"Channel : Mg",
"Points : 0",
"Range : 0.000000 - 0.000000",
"Step : 0.010000",
"Channel_info_end",
"Channel_info_start",
"Channel : Al",
"Points : 0",
"Range : 0.000000 - 0.000000",
"Step : 0.010000",
"Channel_info_end",
"Channel_info_start",
"Channel : Si",
"Points : 0",
"Range : 0.000000 - 0.000000",
"Step : 0.010000",
"Channel_info_end",
"Channel_info_start",
"Channel : P ",
"Points : 0",
"Range : 0.000000 - 0.000000",
"Step : 0.010000",
"Channel_info_end",
"Channel_info_start",
"Channel : S ",
"Points : 0",
"Range : 0.000000 - 0.000000",
"Step : 0.010000",
"Channel_info_end",
"Channel_info_start",
"Channel : Cl",
"Points : 0",
"Range : 0.000000 - 0.000000",
"Step : 0.010000",
"Channel_info_end",
"Channel_info_start",
"Channel : K ",
"Points : 0",
"Range : 0.000000 - 0.000000",
"Step : 0.010000",
"Channel_info_end",
"Channel_info_start",
"Channel : Ca",
"Points : 0",
"Range : 0.000000 - 0.000000",
"Step : 0.010000",
"Channel_info_end",
"Channel_info_start",
"Channel : Ti",
"Points : 0",
"Range : 0.000000 - 0.000000",
"Step : 0.010000",
"Channel_info_end",
"Channel_info_start",
"Channel : V ",
"Points : 0",
"Range : 0.000000 - 0.000000",
"Step : 0.010000",
"Channel_info_end",
"Channel_info_start",
"Channel : Cr",
"Points : 0",
"Range : 0.000000 - 0.000000",
"Step : 0.010000",
"Channel_info_end",
"Channel_info_start",
"Channel : Mn",
"Points : 0",
"Range : 0.000000 - 0.000000",
"Step : 0.010000",
"Channel_info_end",
"Channel_info_start",
"Channel : Fe",
"Points : 0",
"Range : 0.000000 - 0.000000",
"Step : 0.010000",
"Channel_info_end",
"Channel_info_start",
"Channel : Cu",
"Points : 0",
"Range : 0.000000 - 0.000000",
"Step : 0.010000",
"Channel_info_end",
"Channel_info_start",
"Channel : Zn",
"Points : 0",
"Range : 0.000000 - 0.000000",
"Step : 0.010000",
"Channel_info_end",
"Channel_info_start",
"Channel : Sr",
"Points : 0",
"Range : 0.000000 - 0.000000",
"Step : 0.010000",
"Channel_info_end",
"Channel_info_start",
"Channel : Pb",
"Points : 0",
"Range : 0.000000 - 0.000000",
"Step : 0.010000",
"Channel_info_end",
"",
"Qualitative Result",
"--------------------------------------------------------------------------------",
"Element :  Ga, As, P , Ca, Ru",
"",
"Peak List",
"--------------------------------------------------------------------------------",
"Channel               Line        keV     Net Int.(cps/uA)",
"--------------------------------------------------------------------------------",
"Na                    GaLa         1.11     0.070",
"                      AsLa         1.30     0.364",
"                      P Ka         2.00     0.011",
"                      CaKa         3.69     0.168",
"                      CaKb         4.02     0.022",
"                      GaKa         9.24     3.640",
"                      AsKa        10.52    14.112",
"                      AsKb        11.72     2.036",
"                      RuKa        19.16     0.137",
"                      ----        19.41     0.060",
"                      ----        19.97     0.054",
"--------------------------------------------------------------------------------",
"",
"Quantitative Result",
"--------------------------------------------------------------------------------",
"Analyte               Result             Std.Dev. Proc.-Calc. Line Intensity(cps/uA)",
"--------------------------------------------------------------------------------",
"====[No. 1 Layer]====< Layer1               >===============================",
"Layer1                   0.000 ug/cm2    -------- Flux       -------- --------",