Folder: mestrado_ifusp/inputs/edxCalibration/edx_raw/2010/junho (part 14)

File: Sb 31509.20100611032406.csv
"Sample    : Sb 31509",
"Operator  : Luís",
"Comment  : cubatao-g-policarbonato",
"Group     : kerr2007ag180cal_lt",
"Date       : 2010-06-11 03:19:55",
"",
"Mesurement Condition",
"------------------------------------------------------------------------------------",
"Instrument : 700HS2   Atmosphere : Vac.   Collimator : 10(mm)   Spin : No",
"------------------------------------------------------------------------------------",
"Analyte               TG kV   uA      FI Acq.(keV)  Anal.(keV)  Time(sec)     DT(%)",
"------------------------------------------------------------------------------------",
"Na                    Rh 50  360-Auto Al  0 - 20    0.8 - 1.2   Live -  179   15",
"",
"<Profile>",
"Channel_info_start",
"Channel : Na",
"Points : 2048",
"Range : 0.000000 - 20.48",
"Step : 0.010000",
"Channel_info_end",
"0",
"0",
"0",
"0",
"2",
"48",
"45",
"49",
"42",
"39",
"36",
"36",
"40",
"40",
"48",
"41",
"42",
"44",
"35",
"49",
"54",
"48",
"59",
"57",
"66",
"85",
"159",
"215",
"152",
"161",
"157",
"110",
"69",
"71",
"58",
"62",
"49",
"64",
"69",
"64",
"78",
"84",
"71",
"93",
"203",
"532",
"532",
"279",
"291",
"510",
"2403",
"11422",
"11788",
"3903",
"4187",
"8967",
"5696",
"2443",
"1764",
"1735",
"602",
"529",
"926",
"626",
"286",
"636",
"612",
"285",
"78",
"72",
"51",
"61",
"72",
"99",
"101",
"115",
"77",
"102",
"75",
"85",
"65",
"91",
"89",
"99",
"138",
"147",
"150",
"157",
"143",
"137",
"158",
"162",
"132",
"122",
"109",
"117",
"133",
"150",
"131",
"149",
"192",
"171",
"182",
"203",
"189",
"191",
"181",
"161",
"180",
"182",
"175",
"197",
"159",
"219",
"184",
"211",
"166",
"154",
"130",
"150",
"172",
"167",
"201",
"237",
"221",
"183",
"179",
"201",
"197",
"194",
"174",
"185",
"206",
"167",
"179",
"177",
"171",
"145",
"132",
"151",
"120",
"170",
"130",
"146",
"144",
"157",
"140",
"151",
"149",
"162",
"161",
"160",
"148",
"173",
"171",
"179",
"171",
"162",
"169",
"149",
"149",
"151",
"152",
"138",
"139",
"164",
"154",
"124",
"154",
"147",
"135",
"150",
"148",
"142",
"131",
"130",
"154",
"119",
"136",
"119",
"126",
"103",
"119",
"126",
"130",
"132",
"107",
"121",
"121",
"115",
"118",
"128",
"101",
"127",
"121",
"124",
"111",
"102",
"117",
"112",
"140",
"117",
"103",
"126",
"128",
"107",
"109",
"123",
"115",
"111",
"110",
"95",
"99",
"100",
"83",
"103",
"91",
"78",
"103",
"89",
"103",
"88",
"100",
"90",
"98",
"93",
"83",
"78",
"96",
"87",
"84",
"96",
"76",
"85",
"84",
"85",
"95",
"89",
"82",
"90",
"93",
"93",
"78",
"79",
"94",
"105",
"85",
"91",
"96",
"84",
"88",
"79",
"85",
"84",
"107",
"97",
"110",
"89",
"93",
"111",
"98",
"86",
"96",
"98",
"136",
"126",
"140",
"167",
"199",
"235",
"333",
"363",
"492",
"534",
"537",
"481",
"463",
"366",
"282",
"255",
"180",
"146",
"136",
"158",
"206",
"244",
"338",
"375",
"307",
"194",
"128",
"79",
"87",
"120932",
"Channel_info_start",
"Channel : Mg",
"Points : 0",
"Range : 0.000000 - 0.000000",
"Step : 0.010000",
"Channel_info_end",
"Channel_info_start",
"Channel : Al",
"Points : 0",
"Range : 0.000000 - 0.000000",
"Step : 0.010000",
"Channel_info_end",
"Channel_info_start",
"Channel : Si",
"Points : 0",
"Range : 0.000000 - 0.000000",
"Step : 0.010000",
"Channel_info_end",
"Channel_info_start",
"Channel : P ",
"Points : 0",
"Range : 0.000000 - 0.000000",
"Step : 0.010000",
"Channel_info_end",
"Channel_info_start",
"Channel : S ",
"Points : 0",
"Range : 0.000000 - 0.000000",
"Step : 0.010000",
"Channel_info_end",
"Channel_info_start",
"Channel : Cl",
"Points : 0",
"Range : 0.000000 - 0.000000",
"Step : 0.010000",
"Channel_info_end",
"Channel_info_start",
"Channel : K ",
"Points : 0",
"Range : 0.000000 - 0.000000",
"Step : 0.010000",
"Channel_info_end",
"Channel_info_start",
"Channel : Ca",
"Points : 0",
"Range : 0.000000 - 0.000000",
"Step : 0.010000",
"Channel_info_end",
"Channel_info_start",
"Channel : Ti",
"Points : 0",
"Range : 0.000000 - 0.000000",
"Step : 0.010000",
"Channel_info_end",
"Channel_info_start",
"Channel : V ",
"Points : 0",
"Range : 0.000000 - 0.000000",
"Step : 0.010000",
"Channel_info_end",
"Channel_info_start",
"Channel : Cr",
"Points : 0",
"Range : 0.000000 - 0.000000",
"Step : 0.010000",
"Channel_info_end",
"Channel_info_start",
"Channel : Mn",
"Points : 0",
"Range : 0.000000 - 0.000000",
"Step : 0.010000",
"Channel_info_end",
"Channel_info_start",
"Channel : Fe",
"Points : 0",
"Range : 0.000000 - 0.000000",
"Step : 0.010000",
"Channel_info_end",
"Channel_info_start",
"Channel : Cu",
"Points : 0",
"Range : 0.000000 - 0.000000",
"Step : 0.010000",
"Channel_info_end",
"Channel_info_start",
"Channel : Zn",
"Points : 0",
"Range : 0.000000 - 0.000000",
"Step : 0.010000",
"Channel_info_end",
"Channel_info_start",
"Channel : Sr",
"Points : 0",
"Range : 0.000000 - 0.000000",
"Step : 0.010000",
"Channel_info_end",
"Channel_info_start",
"Channel : Pb",
"Points : 0",
"Range : 0.000000 - 0.000000",
"Step : 0.010000",
"Channel_info_end",
"",
"Qualitative Result",
"--------------------------------------------------------------------------------",
"Element :  Sb, P , Te, Ru",
"",
"Peak List",
"--------------------------------------------------------------------------------",
"Channel               Line        keV     Net Int.(cps/uA)",
"--------------------------------------------------------------------------------",
"Na                    SbLaESC      1.86     0.028",
"                      P Ka         2.04     0.025",
"                      SbLL         3.19     0.099",
"                      SbLa         3.60     2.864",
"                      SbLb1        3.84     1.461",
"                      TeLa         3.84     0.315",
"                      TeLb1        4.03     0.161",
"                      SbLb2        4.10     0.328",
"                      SbLg1        4.35     0.128",
"                      SbLg2        4.60     0.114",
"                      RuKa        19.21     0.141",
"                      ----        19.45     0.052",
"                      ----        19.91     0.044",
"--------------------------------------------------------------------------------",
"",
"Quantitative Result",
"--------------------------------------------------------------------------------",
"Analyte               Result             Std.Dev. Proc.-Calc. Line Intensity(cps/uA)",
"--------------------------------------------------------------------------------",
"====[No. 1 Layer]====< Layer1               >===============================",
"Layer1                   0.000 ug/cm2    -------- Flux       -------- --------",

File: SdSe 15766.20100526000201.csv
"Sample    : SdSe 15766",
"Operator  : luisf",
"Comment  : cubatao-g-policarbonato",
"Group     : kerr2007ag180cal_lt",
"Date       : 2010-05-25 23:58:00",
"",
"Mesurement Condition",
"------------------------------------------------------------------------------------",
"Instrument : 700HS2   Atmosphere : Vac.   Collimator : 10(mm)   Spin : No",
"------------------------------------------------------------------------------------",
"Analyte               TG kV   uA      FI Acq.(keV)  Anal.(keV)  Time(sec)     DT(%)",
"------------------------------------------------------------------------------------",
"Na                    Rh 50  237-Auto Al  0 - 20    0.8 - 1.2   Live -  179   14",
"",
"<Profile>",
"Channel_info_start",
"Channel : Na",
"Points : 2048",
"Range : 0.000000 - 20.48",
"Step : 0.010000",
"Channel_info_end",
"0",
"0",
"0",
"0",
"0",
"30",
"33",
"38",
"28",
"25",
"26",
"13",
"25",
"14",
"29",
"26",
"38",
"46",
"82",
"375",
"806",
"404",
"121",
"67",
"37",
"40",
"25",
"37",
"55",
"63",
"41",
"29",
"39",
"52",
"42",
"32",
"29",
"40",
"77",
"185",
"196",
"158",
"120",
"349",
"2240",
"3954",
"1445",
"1822",
"1799",
"892",
"507",
"524",
"533",
"724",
"288",
"82",
"140",
"187",
"107",
"39",
"28",
"38",
"29",
"41",
"32",
"53",
"46",
"37",
"41",
"41",
"37",
"35",
"36",
"40",
"37",
"45",
"41",
"60",
"63",
"52",
"52",
"80",
"57",
"60",
"77",
"88",
"66",
"86",
"80",
"86",
"88",
"107",
"95",
"103",
"111",
"88",
"84",
"93",
"110",
"88",
"108",
"105",
"94",
"112",
"96",
"93",
"120",
"108",
"99",
"103",
"112",
"102",
"110",
"115",
"133",
"158",
"126",
"104",
"89",
"103",
"88",
"100",
"134",
"160",
"153",
"118",
"127",
"115",
"118",
"108",
"115",
"106",
"100",
"136",
"105",
"124",
"133",
"109",
"99",
"132",
"98",
"109",
"84",
"95",
"121",
"102",
"102",
"110",
"104",
"104",
"96",
"98",
"126",
"108",
"129",
"130",
"214",
"888",
"3967",
"10352",
"13789",
"10122",
"3922",
"1008",
"201",
"149",
"121",
"93",
"102",
"123",
"102",
"132",
"122",
"116",
"132",
"184",
"517",
"1368",
"1882",
"1870",
"1041",
"510",
"185",
"103",
"88",
"82",
"75",
"94",
"90",
"72",
"93",
"64",
"76",
"84",
"84",
"80",
"70",
"82",
"58",
"59",
"77",
"67",
"73",
"65",
"78",
"73",
"71",
"67",
"69",
"53",
"77",
"66",
"82",
"60",
"62",
"60",
"77",
"63",
"56",
"66",
"65",
"49",
"60",
"75",
"68",
"62",
"52",
"63",
"60",
"64",
"49",
"51",
"66",
"75",
"52",
"60",
"67",
"50",
"49",
"60",
"50",
"50",
"51",
"54",
"60",
"55",
"56",
"53",
"69",
"52",
"64",
"50",
"44",
"39",
"48",
"52",
"59",
"59",
"49",
"62",
"59",
"62",
"68",
"58",
"67",
"85",
"68",
"110",
"118",
"150",
"180",
"250",
"294",
"338",
"327",
"353",
"291",
"270",
"184",
"160",
"116",
"94",
"84",
"85",
"100",
"154",
"184",
"205",
"188",
"123",
"86",
"48",
"59",
"84246",
"Channel_info_start",
"Channel : Mg",
"Points : 0",
"Range : 0.000000 - 0.000000",
"Step : 0.010000",
"Channel_info_end",
"Channel_info_start",
"Channel : Al",
"Points : 0",
"Range : 0.000000 - 0.000000",
"Step : 0.010000",
"Channel_info_end",
"Channel_info_start",
"Channel : Si",
"Points : 0",
"Range : 0.000000 - 0.000000",
"Step : 0.010000",
"Channel_info_end",
"Channel_info_start",
"Channel : P ",
"Points : 0",
"Range : 0.000000 - 0.000000",
"Step : 0.010000",
"Channel_info_end",
"Channel_info_start",
"Channel : S ",
"Points : 0",
"Range : 0.000000 - 0.000000",
"Step : 0.010000",
"Channel_info_end",
"Channel_info_start",
"Channel : Cl",
"Points : 0",
"Range : 0.000000 - 0.000000",
"Step : 0.010000",
"Channel_info_end",
"Channel_info_start",
"Channel : K ",
"Points : 0",
"Range : 0.000000 - 0.000000",
"Step : 0.010000",
"Channel_info_end",
"Channel_info_start",
"Channel : Ca",
"Points : 0",
"Range : 0.000000 - 0.000000",
"Step : 0.010000",
"Channel_info_end",
"Channel_info_start",
"Channel : Ti",
"Points : 0",
"Range : 0.000000 - 0.000000",
"Step : 0.010000",
"Channel_info_end",
"Channel_info_start",
"Channel : V ",
"Points : 0",
"Range : 0.000000 - 0.000000",
"Step : 0.010000",
"Channel_info_end",
"Channel_info_start",
"Channel : Cr",
"Points : 0",
"Range : 0.000000 - 0.000000",
"Step : 0.010000",
"Channel_info_end",
"Channel_info_start",
"Channel : Mn",
"Points : 0",
"Range : 0.000000 - 0.000000",
"Step : 0.010000",
"Channel_info_end",
"Channel_info_start",
"Channel : Fe",
"Points : 0",
"Range : 0.000000 - 0.000000",
"Step : 0.010000",
"Channel_info_end",
"Channel_info_start",
"Channel : Cu",
"Points : 0",
"Range : 0.000000 - 0.000000",
"Step : 0.010000",
"Channel_info_end",
"Channel_info_start",
"Channel : Zn",
"Points : 0",
"Range : 0.000000 - 0.000000",
"Step : 0.010000",
"Channel_info_end",
"Channel_info_start",
"Channel : Sr",
"Points : 0",
"Range : 0.000000 - 0.000000",
"Step : 0.010000",
"Channel_info_end",
"Channel_info_start",
"Channel : Pb",
"Points : 0",
"Range : 0.000000 - 0.000000",
"Step : 0.010000",
"Channel_info_end",
"",
"Qualitative Result",
"--------------------------------------------------------------------------------",
"Element :  Se, P , Cd, Ca, Zn, Ru",
"",
"Peak List",
"--------------------------------------------------------------------------------",
"Channel               Line        keV     Net Int.(cps/uA)",
"--------------------------------------------------------------------------------",
"Na                    SeLa         1.40     0.214",
"                      P Ka         2.00     0.014",
"                      CdLL         2.78     0.046",
"                      CdLa         3.13     1.222",
"                      CdLb1        3.32     0.643",
"                      CdLb2        3.55     0.106",
"                      CdLg1        3.69     0.061",
"                      CaKa         3.69     0.137",
"                      CdLg2        3.98     0.037",
"                      ZnKa         8.59     0.029",
"                      SeKa        11.20     6.151",
"                      SeKb        12.48     0.932",
"                      ----        19.08     0.124",
"                      RuKa        19.35     0.114",
"                      ----        20.01     0.067",
"--------------------------------------------------------------------------------",
"",
"Quantitative Result",
"--------------------------------------------------------------------------------",
"Analyte               Result             Std.Dev. Proc.-Calc. Line Intensity(cps/uA)",
"--------------------------------------------------------------------------------",
"====[No. 1 Layer]====< Layer1               >===============================",
"Layer1                   0.000 ug/cm2    -------- Flux       -------- --------",

File: Se 15759.20100525224908.csv
"Sample    : Se 15759",
"Operator  : luisf",
"Comment  : cubatao-g-policarbonato",
"Group     : kerr2007ag180cal_lt",
"Date       : 2010-05-25 22:43:11",
"",
"Mesurement Condition",
"------------------------------------------------------------------------------------",
"Instrument : 700HS2   Atmosphere : Vac.   Collimator : 10(mm)   Spin : No",
"------------------------------------------------------------------------------------",
"Analyte               TG kV   uA      FI Acq.(keV)  Anal.(keV)  Time(sec)     DT(%)",
"------------------------------------------------------------------------------------",
"Na                    Rh 50  168-Auto Al  0 - 20    0.8 - 1.2   Live -  179   15",
"",
"<Profile>",
"Channel_info_start",
"Channel : Na",
"Points : 2048",
"Range : 0.000000 - 20.48",
"Step : 0.010000",
"Channel_info_end",
"0",
"0",
"0",
"0",
"0",
"18",
"17",
"30",
"23",
"7",
"11",
"14",
"13",
"17",
"11",
"20",
"16",
"69",
"101",
"548",
"1310",
"624",
"82",
"27",
"21",
"17",
"15",
"22",
"28",
"46",
"16",
"11",
"13",
"13",
"8",
"12",
"10",
"7",
"16",
"16",
"15",
"10",
"11",
"11",
"9",
"7",
"11",
"11",
"5",
"13",
"15",
"67",
"282",
"346",
"115",
"28",
"37",
"75",
"51",
"24",
"25",
"24",
"12",
"24",
"28",
"34",
"34",
"44",
"44",
"28",
"38",
"30",
"28",
"39",
"34",
"29",
"33",
"47",
"38",
"33",
"29",
"44",
"34",
"47",
"38",
"41",
"46",
"56",
"62",
"40",
"59",
"59",
"74",
"67",
"49",
"68",
"67",
"68",
"69",
"79",
"69",
"75",
"61",
"74",
"48",
"60",
"73",
"90",
"62",
"68",
"62",
"79",
"75",
"69",
"110",
"114",
"71",
"57",
"57",
"75",
"69",
"89",
"91",
"108",
"127",
"94",
"77",
"77",
"82",
"64",
"63",
"66",
"65",
"76",
"95",
"86",
"79",
"63",
"71",
"87",
"85",
"89",
"67",
"73",
"63",
"78",
"57",
"71",
"76",
"86",
"71",
"80",
"93",
"118",
"113",
"132",
"287",
"1692",
"6927",
"17828",
"23878",
"17089",
"6449",
"1501",
"252",
"111",
"88",
"86",
"81",
"104",
"80",
"108",
"98",
"106",
"139",
"278",
"872",
"2159",
"3212",
"3128",
"1661",
"689",
"260",
"100",
"68",
"57",
"47",
"54",
"50",
"56",
"47",
"37",
"48",
"56",
"44",
"52",
"47",
"57",
"49",
"41",
"57",
"48",
"38",
"52",
"55",
"44",
"44",
"52",
"42",
"50",
"38",
"47",
"55",
"41",
"36",
"60",
"36",
"44",
"31",
"40",
"42",
"38",
"39",
"42",
"50",
"40",
"40",
"35",
"44",
"56",
"30",
"43",
"42",
"49",
"33",
"44",
"33",
"37",
"37",
"42",
"27",
"40",
"21",
"42",
"40",
"36",
"40",
"28",
"38",
"39",
"33",
"39",
"42",
"43",
"39",
"30",
"43",
"46",
"48",
"36",
"39",
"43",
"38",
"60",
"55",
"62",
"68",
"79",
"81",
"129",
"145",
"197",
"230",
"206",
"240",
"239",
"216",
"183",
"131",
"91",
"100",
"61",
"69",
"64",
"92",
"106",
"120",
"136",
"124",
"80",
"51",
"33",
"37",
"19458",
"Channel_info_start",
"Channel : Mg",
"Points : 0",
"Range : 0.000000 - 0.000000",
"Step : 0.010000",
"Channel_info_end",
"Channel_info_start",
"Channel : Al",
"Points : 0",
"Range : 0.000000 - 0.000000",
"Step : 0.010000",
"Channel_info_end",
"Channel_info_start",
"Channel : Si",
"Points : 0",
"Range : 0.000000 - 0.000000",
"Step : 0.010000",
"Channel_info_end",
"Channel_info_start",
"Channel : P ",
"Points : 0",
"Range : 0.000000 - 0.000000",
"Step : 0.010000",
"Channel_info_end",
"Channel_info_start",
"Channel : S ",
"Points : 0",
"Range : 0.000000 - 0.000000",
"Step : 0.010000",
"Channel_info_end",
"Channel_info_start",
"Channel : Cl",
"Points : 0",
"Range : 0.000000 - 0.000000",
"Step : 0.010000",
"Channel_info_end",
"Channel_info_start",
"Channel : K ",
"Points : 0",
"Range : 0.000000 - 0.000000",
"Step : 0.010000",
"Channel_info_end",
"Channel_info_start",
"Channel : Ca",
"Points : 0",
"Range : 0.000000 - 0.000000",
"Step : 0.010000",
"Channel_info_end",
"Channel_info_start",
"Channel : Ti",
"Points : 0",
"Range : 0.000000 - 0.000000",
"Step : 0.010000",
"Channel_info_end",
"Channel_info_start",
"Channel : V ",
"Points : 0",
"Range : 0.000000 - 0.000000",
"Step : 0.010000",
"Channel_info_end",
"Channel_info_start",
"Channel : Cr",
"Points : 0",
"Range : 0.000000 - 0.000000",
"Step : 0.010000",
"Channel_info_end",
"Channel_info_start",
"Channel : Mn",
"Points : 0",
"Range : 0.000000 - 0.000000",
"Step : 0.010000",
"Channel_info_end",
"Channel_info_start",
"Channel : Fe",
"Points : 0",
"Range : 0.000000 - 0.000000",
"Step : 0.010000",
"Channel_info_end",
"Channel_info_start",
"Channel : Cu",
"Points : 0",
"Range : 0.000000 - 0.000000",
"Step : 0.010000",
"Channel_info_end",
"Channel_info_start",
"Channel : Zn",
"Points : 0",
"Range : 0.000000 - 0.000000",
"Step : 0.010000",
"Channel_info_end",
"Channel_info_start",
"Channel : Sr",
"Points : 0",
"Range : 0.000000 - 0.000000",
"Step : 0.010000",
"Channel_info_end",
"Channel_info_start",
"Channel : Pb",
"Points : 0",
"Range : 0.000000 - 0.000000",
"Step : 0.010000",
"Channel_info_end",
"",
"Qualitative Result",
"--------------------------------------------------------------------------------",
"Element :  Mg, Se, P , Ca, Ru",
"",
"Peak List",
"--------------------------------------------------------------------------------",
"Channel               Line        keV     Net Int.(cps/uA)",
"--------------------------------------------------------------------------------",
"Na                    MgKa         1.20     0.014",
"                      SeLa         1.40     0.494",
"                      P Ka         2.00     0.013",
"                      CaKa         3.69     0.179",
"                      CaKb         4.00     0.026",
"                      SeKa        11.20    14.999",
"                      SeKb        12.49     2.178",
"                      RuKa        19.20     0.141",
"--------------------------------------------------------------------------------",
"",
"Quantitative Result",
"--------------------------------------------------------------------------------",
"Analyte               Result             Std.Dev. Proc.-Calc. Line Intensity(cps/uA)",
"--------------------------------------------------------------------------------",
"====[No. 1 Layer]====< Layer1               >===============================",
"Layer1                   4.547 ug/cm2    -------- Flux       -------- --------",
"Mg                       4.547 ug/cm2    -------- ********** -------- --------",

File: Se 31505.20100525225312.csv
"Sample    : Se 31505",
"Operator  : luisf",
"Comment  : cubatao-g-policarbonato",
"Group     : kerr2007ag180cal_lt",
"Date       : 2010-05-25 22:49:07",
"",
"Mesurement Condition",
"------------------------------------------------------------------------------------",
"Instrument : 700HS2   Atmosphere : Vac.   Collimator : 10(mm)   Spin : No",
"------------------------------------------------------------------------------------",
"Analyte               TG kV   uA      FI Acq.(keV)  Anal.(keV)  Time(sec)     DT(%)",
"------------------------------------------------------------------------------------",
"Na                    Rh 50  168-Auto Al  0 - 20    0.8 - 1.2   Live -  179   16",
"",
"<Profile>",
"Channel_info_start",
"Channel : Na",
"Points : 2048",
"Range : 0.000000 - 20.48",
"Step : 0.010000",
"Channel_info_end",
"0",
"0",
"0",
"0",
"0",
"34",
"19",
"24",
"15",
"25",
"17",
"12",
"17",
"11",
"17",
"21",
"15",
"76",
"95",
"594",
"1480",
"648",
"107",
"36",
"22",
"10",
"15",
"21",
"39",
"61",
"19",
"12",
"13",
"7",
"14",
"10",
"17",
"15",
"8",
"4",
"10",
"22",
"14",
"8",
"13",
"10",
"8",
"17",
"7",
"12",
"17",
"83",
"439",
"621",
"185",
"45",
"51",
"99",
"66",
"36",
"14",
"21",
"26",
"36",
"40",
"44",
"37",
"35",
"41",
"26",
"36",
"33",
"32",
"25",
"26",
"33",
"35",
"41",
"46",
"37",
"32",
"40",
"48",
"44",
"42",
"57",
"58",
"50",
"49",
"49",
"58",
"70",
"54",
"66",
"69",
"61",
"64",
"63",
"65",
"72",
"70",
"74",
"53",
"75",
"70",
"73",
"70",
"73",
"77",
"78",
"63",
"75",
"80",
"61",
"90",
"86",
"78",
"72",
"78",
"64",
"73",
"80",
"90",
"139",
"107",
"88",
"78",
"75",
"88",
"68",
"70",
"70",
"63",
"69",
"88",
"85",
"80",
"76",
"70",
"80",
"78",
"78",
"61",
"75",
"72",
"77",
"81",
"78",
"70",
"91",
"68",
"83",
"76",
"93",
"93",
"152",
"340",
"1730",
"7319",
"18905",
"24822",
"17691",
"6792",
"1487",
"233",
"96",
"106",
"82",
"94",
"75",
"82",
"101",
"89",
"135",
"136",
"278",
"899",
"2325",
"3583",
"3224",
"1843",
"704",
"266",
"120",
"60",
"52",
"52",
"44",
"48",
"51",
"45",
"62",
"53",
"49",
"40",
"49",
"45",
"32",
"69",
"42",
"58",
"37",
"36",
"30",
"45",
"54",
"47",
"54",
"61",
"47",
"26",
"52",
"59",
"34",
"29",
"46",
"41",
"39",
"39",
"36",
"37",
"35",
"38",
"28",
"39",
"33",
"38",
"36",
"44",
"32",
"37",
"34",
"30",
"25",
"38",
"24",
"42",
"36",
"33",
"35",
"41",
"36",
"36",
"40",
"39",
"37",
"36",
"40",
"38",
"40",
"35",
"28",
"30",
"36",
"36",
"27",
"35",
"40",
"49",
"49",
"56",
"50",
"41",
"47",
"66",
"49",
"64",
"85",
"93",
"111",
"134",
"188",
"239",
"257",
"251",
"233",
"242",
"180",
"145",
"103",
"87",
"73",
"61",
"59",
"70",
"85",
"121",
"120",
"124",
"83",
"48",
"48",
"34",
"19154",
"Channel_info_start",
"Channel : Mg",
"Points : 0",
"Range : 0.000000 - 0.000000",
"Step : 0.010000",
"Channel_info_end",
"Channel_info_start",
"Channel : Al",
"Points : 0",
"Range : 0.000000 - 0.000000",
"Step : 0.010000",
"Channel_info_end",
"Channel_info_start",
"Channel : Si",
"Points : 0",
"Range : 0.000000 - 0.000000",
"Step : 0.010000",
"Channel_info_end",
"Channel_info_start",
"Channel : P ",
"Points : 0",
"Range : 0.000000 - 0.000000",
"Step : 0.010000",
"Channel_info_end",
"Channel_info_start",
"Channel : S ",
"Points : 0",
"Range : 0.000000 - 0.000000",
"Step : 0.010000",
"Channel_info_end",
"Channel_info_start",
"Channel : Cl",
"Points : 0",
"Range : 0.000000 - 0.000000",
"Step : 0.010000",
"Channel_info_end",
"Channel_info_start",
"Channel : K ",
"Points : 0",
"Range : 0.000000 - 0.000000",
"Step : 0.010000",
"Channel_info_end",
"Channel_info_start",
"Channel : Ca",
"Points : 0",
"Range : 0.000000 - 0.000000",
"Step : 0.010000",
"Channel_info_end",
"Channel_info_start",
"Channel : Ti",
"Points : 0",
"Range : 0.000000 - 0.000000",
"Step : 0.010000",
"Channel_info_end",
"Channel_info_start",
"Channel : V ",
"Points : 0",
"Range : 0.000000 - 0.000000",
"Step : 0.010000",
"Channel_info_end",
"Channel_info_start",
"Channel : Cr",
"Points : 0",
"Range : 0.000000 - 0.000000",
"Step : 0.010000",
"Channel_info_end",
"Channel_info_start",
"Channel : Mn",
"Points : 0",
"Range : 0.000000 - 0.000000",
"Step : 0.010000",
"Channel_info_end",
"Channel_info_start",
"Channel : Fe",
"Points : 0",
"Range : 0.000000 - 0.000000",
"Step : 0.010000",
"Channel_info_end",
"Channel_info_start",
"Channel : Cu",
"Points : 0",
"Range : 0.000000 - 0.000000",
"Step : 0.010000",
"Channel_info_end",
"Channel_info_start",
"Channel : Zn",
"Points : 0",
"Range : 0.000000 - 0.000000",
"Step : 0.010000",
"Channel_info_end",
"Channel_info_start",
"Channel : Sr",
"Points : 0",
"Range : 0.000000 - 0.000000",
"Step : 0.010000",
"Channel_info_end",
"Channel_info_start",
"Channel : Pb",
"Points : 0",
"Range : 0.000000 - 0.000000",
"Step : 0.010000",
"Channel_info_end",
"",
"Qualitative Result",
"--------------------------------------------------------------------------------",
"Element :  Ca, Se, P , Rh",
"",
"Peak List",
"--------------------------------------------------------------------------------",
"Channel               Line        keV     Net Int.(cps/uA)",
"--------------------------------------------------------------------------------",
"Na                    CaLa         0.36     0.009",
"                      ----         0.50     0.007",
"                      ----         1.19     0.021",
"                      SeLa         1.40     0.555",
"                      P Ka         2.01     0.022",
"                      CaKa         3.68     0.289",
"                      CaKb         4.01     0.037",
"                      SeKa        11.20    15.681",
"                      SeKb        12.48     2.309",
"                      RhKaC       19.21     0.132",
"                      ----        19.48     0.058",
"                      RhKa        20.05     0.062",
"--------------------------------------------------------------------------------",
"",
"Quantitative Result",
"--------------------------------------------------------------------------------",
"Analyte               Result             Std.Dev. Proc.-Calc. Line Intensity(cps/uA)",
"--------------------------------------------------------------------------------",
"====[No. 1 Layer]====< Layer1               >===============================",
"Layer1                   0.000 ug/cm2    -------- Flux       -------- --------",