Folder: mestrado_ifusp/inputs/edxCalibration/edx_raw/2010/junho (part 2)

File: Al 31492.20100525201543.csv
"Sample    : Al 31492",
"Operator  : thiago",
"Comment  : cubatao-g-policarbonato",
"Group     : kerr2007ag180cal_lt",
"Date       : 2010-05-25 20:11:30",
"",
"Mesurement Condition",
"------------------------------------------------------------------------------------",
"Instrument : 700HS2   Atmosphere : Vac.   Collimator : 10(mm)   Spin : No",
"------------------------------------------------------------------------------------",
"Analyte               TG kV   uA      FI Acq.(keV)  Anal.(keV)  Time(sec)     DT(%)",
"------------------------------------------------------------------------------------",
"Na                    Rh 50  970-Auto Al  0 - 20    0.8 - 1.2   Live -  179   15",
"",
"<Profile>",
"Channel_info_start",
"Channel : Na",
"Points : 2048",
"Range : 0.000000 - 20.48",
"Step : 0.010000",
"Channel_info_end",
"0",
"0",
"0",
"0",
"0",
"57",
"56",
"58",
"61",
"36",
"64",
"53",
"51",
"46",
"53",
"50",
"59",
"79",
"102",
"173",
"1266",
"6657",
"3450",
"330",
"79",
"74",
"56",
"76",
"208",
"274",
"100",
"42",
"39",
"46",
"46",
"48",
"36",
"40",
"59",
"48",
"50",
"69",
"60",
"42",
"57",
"50",
"53",
"60",
"83",
"50",
"96",
"533",
"2514",
"3579",
"1088",
"212",
"259",
"554",
"364",
"132",
"79",
"107",
"118",
"149",
"179",
"208",
"177",
"158",
"150",
"156",
"149",
"150",
"137",
"144",
"138",
"175",
"191",
"231",
"226",
"201",
"179",
"200",
"197",
"221",
"191",
"211",
"218",
"267",
"283",
"341",
"322",
"383",
"410",
"389",
"319",
"370",
"353",
"331",
"307",
"343",
"331",
"294",
"283",
"291",
"337",
"337",
"322",
"307",
"329",
"349",
"319",
"340",
"346",
"361",
"391",
"411",
"458",
"366",
"315",
"409",
"379",
"452",
"496",
"598",
"568",
"450",
"376",
"357",
"343",
"357",
"353",
"380",
"336",
"358",
"348",
"357",
"421",
"361",
"348",
"371",
"344",
"320",
"344",
"356",
"333",
"323",
"337",
"317",
"318",
"342",
"281",
"341",
"321",
"353",
"293",
"321",
"308",
"314",
"325",
"328",
"344",
"329",
"320",
"335",
"294",
"346",
"302",
"319",
"304",
"307",
"363",
"347",
"321",
"292",
"307",
"320",
"284",
"265",
"294",
"341",
"285",
"320",
"297",
"307",
"323",
"277",
"285",
"290",
"270",
"283",
"283",
"302",
"274",
"255",
"281",
"261",
"269",
"259",
"271",
"259",
"263",
"269",
"295",
"260",
"237",
"235",
"231",
"263",
"225",
"257",
"220",
"254",
"219",
"239",
"233",
"238",
"259",
"247",
"244",
"246",
"192",
"204",
"231",
"207",
"245",
"209",
"229",
"206",
"204",
"212",
"249",
"219",
"219",
"220",
"224",
"207",
"220",
"195",
"187",
"204",
"197",
"207",
"206",
"223",
"237",
"213",
"199",
"208",
"202",
"187",
"220",
"189",
"225",
"191",
"193",
"207",
"224",
"198",
"209",
"261",
"244",
"256",
"246",
"284",
"298",
"352",
"340",
"431",
"523",
"642",
"825",
"1053",
"1335",
"1349",
"1449",
"1451",
"1277",
"1006",
"826",
"700",
"499",
"366",
"321",
"318",
"383",
"463",
"524",
"592",
"531",
"370",
"250",
"230",
"206",
"100627",
"Channel_info_start",
"Channel : Mg",
"Points : 0",
"Range : 0.000000 - 0.000000",
"Step : 0.010000",
"Channel_info_end",
"Channel_info_start",
"Channel : Al",
"Points : 0",
"Range : 0.000000 - 0.000000",
"Step : 0.010000",
"Channel_info_end",
"Channel_info_start",
"Channel : Si",
"Points : 0",
"Range : 0.000000 - 0.000000",
"Step : 0.010000",
"Channel_info_end",
"Channel_info_start",
"Channel : P ",
"Points : 0",
"Range : 0.000000 - 0.000000",
"Step : 0.010000",
"Channel_info_end",
"Channel_info_start",
"Channel : S ",
"Points : 0",
"Range : 0.000000 - 0.000000",
"Step : 0.010000",
"Channel_info_end",
"Channel_info_start",
"Channel : Cl",
"Points : 0",
"Range : 0.000000 - 0.000000",
"Step : 0.010000",
"Channel_info_end",
"Channel_info_start",
"Channel : K ",
"Points : 0",
"Range : 0.000000 - 0.000000",
"Step : 0.010000",
"Channel_info_end",
"Channel_info_start",
"Channel : Ca",
"Points : 0",
"Range : 0.000000 - 0.000000",
"Step : 0.010000",
"Channel_info_end",
"Channel_info_start",
"Channel : Ti",
"Points : 0",
"Range : 0.000000 - 0.000000",
"Step : 0.010000",
"Channel_info_end",
"Channel_info_start",
"Channel : V ",
"Points : 0",
"Range : 0.000000 - 0.000000",
"Step : 0.010000",
"Channel_info_end",
"Channel_info_start",
"Channel : Cr",
"Points : 0",
"Range : 0.000000 - 0.000000",
"Step : 0.010000",
"Channel_info_end",
"Channel_info_start",
"Channel : Mn",
"Points : 0",
"Range : 0.000000 - 0.000000",
"Step : 0.010000",
"Channel_info_end",
"Channel_info_start",
"Channel : Fe",
"Points : 0",
"Range : 0.000000 - 0.000000",
"Step : 0.010000",
"Channel_info_end",
"Channel_info_start",
"Channel : Cu",
"Points : 0",
"Range : 0.000000 - 0.000000",
"Step : 0.010000",
"Channel_info_end",
"Channel_info_start",
"Channel : Zn",
"Points : 0",
"Range : 0.000000 - 0.000000",
"Step : 0.010000",
"Channel_info_end",
"Channel_info_start",
"Channel : Sr",
"Points : 0",
"Range : 0.000000 - 0.000000",
"Step : 0.010000",
"Channel_info_end",
"Channel_info_start",
"Channel : Pb",
"Points : 0",
"Range : 0.000000 - 0.000000",
"Step : 0.010000",
"Channel_info_end",
"",
"Qualitative Result",
"--------------------------------------------------------------------------------",
"Element :  Al, P , Ca, Rh",
"",
"Peak List",
"--------------------------------------------------------------------------------",
"Channel               Line        keV     Net Int.(cps/uA)",
"--------------------------------------------------------------------------------",
"Na                    AlKa         1.48     0.446",
"                      P Ka         2.00     0.019",
"                      CaKa         3.68     0.291",
"                      CaKb         4.02     0.033",
"                      ----         6.42     0.011",
"                      ----         8.64     0.028",
"                      RhKaC       19.17     0.134",
"                      ----        19.44     0.069",
"                      RhKa        20.08     0.043",
"--------------------------------------------------------------------------------",
"",
"Quantitative Result",
"--------------------------------------------------------------------------------",
"Analyte               Result             Std.Dev. Proc.-Calc. Line Intensity(cps/uA)",
"--------------------------------------------------------------------------------",
"====[No. 1 Layer]====< Layer1               >===============================",
"Layer1                   0.000 ug/cm2    -------- Flux       -------- --------",

File: Al 31492.20100611003131.csv
"Sample    : Al 31492",
"Operator  : thiago",
"Comment  : cubatao-g-policarbonato",
"Group     : kerr2007ag180cal_lt",
"Date       : 2010-06-11 00:27:19",
"",
"Mesurement Condition",
"------------------------------------------------------------------------------------",
"Instrument : 700HS2   Atmosphere : Vac.   Collimator : 10(mm)   Spin : No",
"------------------------------------------------------------------------------------",
"Analyte               TG kV   uA      FI Acq.(keV)  Anal.(keV)  Time(sec)     DT(%)",
"------------------------------------------------------------------------------------",
"Na                    Rh 50  970-Auto Al  0 - 20    0.8 - 1.2   Live -  179   15",
"",
"<Profile>",
"Channel_info_start",
"Channel : Na",
"Points : 2048",
"Range : 0.000000 - 20.48",
"Step : 0.010000",
"Channel_info_end",
"0",
"0",
"0",
"0",
"1",
"53",
"48",
"46",
"46",
"48",
"41",
"46",
"48",
"51",
"48",
"53",
"58",
"71",
"100",
"163",
"1317",
"6454",
"3458",
"335",
"83",
"90",
"57",
"84",
"221",
"269",
"97",
"49",
"40",
"52",
"44",
"46",
"28",
"39",
"52",
"58",
"48",
"60",
"53",
"59",
"61",
"47",
"67",
"61",
"61",
"61",
"123",
"579",
"2493",
"3472",
"1119",
"237",
"273",
"504",
"413",
"142",
"86",
"135",
"151",
"164",
"180",
"183",
"184",
"159",
"162",
"110",
"152",
"145",
"137",
"135",
"151",
"160",
"188",
"211",
"205",
"223",
"186",
"151",
"181",
"195",
"216",
"221",
"238",
"281",
"265",
"340",
"356",
"397",
"366",
"369",
"315",
"334",
"358",
"333",
"319",
"311",
"332",
"294",
"299",
"316",
"286",
"324",
"325",
"298",
"334",
"328",
"339",
"371",
"336",
"372",
"391",
"420",
"378",
"385",
"385",
"357",
"417",
"469",
"551",
"606",
"546",
"460",
"353",
"383",
"373",
"313",
"371",
"332",
"346",
"337",
"340",
"356",
"336",
"426",
"327",
"328",
"334",
"334",
"312",
"354",
"280",
"318",
"286",
"307",
"295",
"339",
"347",
"332",
"319",
"358",
"297",
"324",
"303",
"345",
"333",
"306",
"328",
"328",
"282",
"334",
"349",
"312",
"306",
"347",
"311",
"299",
"340",
"317",
"306",
"285",
"280",
"299",
"308",
"292",
"286",
"333",
"287",
"293",
"275",
"320",
"287",
"297",
"245",
"281",
"295",
"276",
"268",
"269",
"269",
"270",
"257",
"249",
"288",
"249",
"275",
"269",
"284",
"256",
"319",
"278",
"275",
"255",
"228",
"251",
"253",
"243",
"238",
"248",
"220",
"235",
"195",
"263",
"238",
"205",
"216",
"251",
"199",
"230",
"226",
"245",
"243",
"247",
"209",
"241",
"201",
"213",
"199",
"205",
"205",
"228",
"222",
"204",
"209",
"204",
"219",
"204",
"183",
"197",
"175",
"224",
"223",
"208",
"193",
"204",
"210",
"214",
"182",
"238",
"205",
"214",
"195",
"202",
"259",
"236",
"206",
"217",
"242",
"244",
"262",
"267",
"281",
"331",
"336",
"442",
"485",
"674",
"825",
"1038",
"1283",
"1430",
"1433",
"1391",
"1281",
"1141",
"821",
"617",
"477",
"399",
"321",
"348",
"370",
"454",
"569",
"590",
"599",
"417",
"278",
"200",
"204",
"99730",
"Channel_info_start",
"Channel : Mg",
"Points : 0",
"Range : 0.000000 - 0.000000",
"Step : 0.010000",
"Channel_info_end",
"Channel_info_start",
"Channel : Al",
"Points : 0",
"Range : 0.000000 - 0.000000",
"Step : 0.010000",
"Channel_info_end",
"Channel_info_start",
"Channel : Si",
"Points : 0",
"Range : 0.000000 - 0.000000",
"Step : 0.010000",
"Channel_info_end",
"Channel_info_start",
"Channel : P ",
"Points : 0",
"Range : 0.000000 - 0.000000",
"Step : 0.010000",
"Channel_info_end",
"Channel_info_start",
"Channel : S ",
"Points : 0",
"Range : 0.000000 - 0.000000",
"Step : 0.010000",
"Channel_info_end",
"Channel_info_start",
"Channel : Cl",
"Points : 0",
"Range : 0.000000 - 0.000000",
"Step : 0.010000",
"Channel_info_end",
"Channel_info_start",
"Channel : K ",
"Points : 0",
"Range : 0.000000 - 0.000000",
"Step : 0.010000",
"Channel_info_end",
"Channel_info_start",
"Channel : Ca",
"Points : 0",
"Range : 0.000000 - 0.000000",
"Step : 0.010000",
"Channel_info_end",
"Channel_info_start",
"Channel : Ti",
"Points : 0",
"Range : 0.000000 - 0.000000",
"Step : 0.010000",
"Channel_info_end",
"Channel_info_start",
"Channel : V ",
"Points : 0",
"Range : 0.000000 - 0.000000",
"Step : 0.010000",
"Channel_info_end",
"Channel_info_start",
"Channel : Cr",
"Points : 0",
"Range : 0.000000 - 0.000000",
"Step : 0.010000",
"Channel_info_end",
"Channel_info_start",
"Channel : Mn",
"Points : 0",
"Range : 0.000000 - 0.000000",
"Step : 0.010000",
"Channel_info_end",
"Channel_info_start",
"Channel : Fe",
"Points : 0",
"Range : 0.000000 - 0.000000",
"Step : 0.010000",
"Channel_info_end",
"Channel_info_start",
"Channel : Cu",
"Points : 0",
"Range : 0.000000 - 0.000000",
"Step : 0.010000",
"Channel_info_end",
"Channel_info_start",
"Channel : Zn",
"Points : 0",
"Range : 0.000000 - 0.000000",
"Step : 0.010000",
"Channel_info_end",
"Channel_info_start",
"Channel : Sr",
"Points : 0",
"Range : 0.000000 - 0.000000",
"Step : 0.010000",
"Channel_info_end",
"Channel_info_start",
"Channel : Pb",
"Points : 0",
"Range : 0.000000 - 0.000000",
"Step : 0.010000",
"Channel_info_end",
"",
"Qualitative Result",
"--------------------------------------------------------------------------------",
"Element :  Al, P , Ca, Fe, Rh",
"",
"Peak List",
"--------------------------------------------------------------------------------",
"Channel               Line        keV     Net Int.(cps/uA)",
"--------------------------------------------------------------------------------",
"Na                    AlKa         1.48     0.428",
"                      P Ka         2.01     0.017",
"                      CaKa         3.68     0.283",
"                      CaKb         4.01     0.037",
"                      FeKa         6.40     0.014",
"                      ----         8.62     0.029",
"                      RhKaC       19.20     0.145",
"                      ----        19.56     0.027",
"                      RhKa        20.05     0.038",
"--------------------------------------------------------------------------------",
"",
"Quantitative Result",
"--------------------------------------------------------------------------------",
"Analyte               Result             Std.Dev. Proc.-Calc. Line Intensity(cps/uA)",
"--------------------------------------------------------------------------------",
"====[No. 1 Layer]====< Layer1               >===============================",
"Layer1                   0.000 ug/cm2    -------- Flux       -------- --------",

File: Au 15771.20100626151105.csv
"Sample    : Au 15771",
"Operator  : thiago",
"Comment  : cubatao-g-policarbonato",
"Group     : kerr2007ag180cal_lt",
"Date       : 2010-06-26 15:07:00",
"",
"Mesurement Condition",
"------------------------------------------------------------------------------------",
"Instrument : 700HS2   Atmosphere : Vac.   Collimator : 10(mm)   Spin : No",
"------------------------------------------------------------------------------------",
"Analyte               TG kV   uA      FI Acq.(keV)  Anal.(keV)  Time(sec)     DT(%)",
"------------------------------------------------------------------------------------",
"Na                    Rh 50  187-Auto Al  0 - 20    0.8 - 1.2   Live -  179   16",
"",
"<Profile>",
"Channel_info_start",
"Channel : Na",
"Points : 2048",
"Range : 0.000000 - 20.48",
"Step : 0.010000",
"Channel_info_end",
"0",
"0",
"0",
"0",
"0",
"91",
"101",
"69",
"36",
"33",
"32",
"38",
"29",
"34",
"27",
"28",
"34",
"27",
"26",
"34",
"29",
"32",
"49",
"192",
"348",
"167",
"153",
"211",
"320",
"684",
"2834",
"4128",
"2537",
"570",
"370",
"380",
"96",
"32",
"46",
"101",
"166",
"112",
"32",
"20",
"25",
"34",
"29",
"33",
"20",
"26",
"15",
"57",
"304",
"412",
"145",
"49",
"41",
"70",
"58",
"22",
"27",
"21",
"28",
"31",
"29",
"41",
"33",
"32",
"35",
"34",
"21",
"29",
"23",
"31",
"44",
"51",
"56",
"74",
"85",
"58",
"58",
"41",
"44",
"47",
"61",
"55",
"68",
"112",
"104",
"166",
"154",
"187",
"195",
"169",
"136",
"112",
"119",
"108",
"88",
"96",
"71",
"73",
"75",
"69",
"69",
"76",
"94",
"83",
"83",
"73",
"97",
"112",
"93",
"101",
"147",
"137",
"133",
"118",
"140",
"221",
"495",
"764",
"709",
"446",
"223",
"153",
"119",
"111",
"124",
"113",
"115",
"145",
"115",
"143",
"192",
"351",
"1443",
"4979",
"10254",
"12274",
"6937",
"2139",
"401",
"199",
"118",
"154",
"195",
"263",
"213",
"127",
"109",
"91",
"116",
"97",
"106",
"105",
"140",
"166",
"346",
"634",
"903",
"1471",
"3340",
"6115",
"6684",
"5355",
"3263",
"1863",
"756",
"419",
"337",
"320",
"215",
"161",
"120",
"84",
"83",
"75",
"73",
"89",
"79",
"76",
"67",
"72",
"112",
"107",
"113",
"110",
"144",
"444",
"822",
"1192",
"983",
"575",
"308",
"323",
"406",
"377",
"266",
"148",
"92",
"81",
"85",
"115",
"108",
"99",
"87",
"59",
"80",
"46",
"70",
"53",
"63",
"47",
"62",
"50",
"53",
"64",
"56",
"51",
"45",
"39",
"67",
"58",
"52",
"58",
"35",
"56",
"60",
"47",
"48",
"52",
"47",
"51",
"51",
"39",
"48",
"47",
"34",
"46",
"55",
"61",
"49",
"45",
"62",
"58",
"49",
"46",
"51",
"40",
"52",
"48",
"55",
"47",
"55",
"46",
"60",
"50",
"56",
"53",
"44",
"61",
"57",
"56",
"74",
"71",
"70",
"87",
"100",
"124",
"132",
"218",
"270",
"272",
"303",
"273",
"276",
"213",
"155",
"140",
"106",
"74",
"69",
"86",
"113",
"188",
"243",
"257",
"256",
"163",
"98",
"51",
"48",
"23200",
"Channel_info_start",
"Channel : Mg",
"Points : 0",
"Range : 0.000000 - 0.000000",
"Step : 0.010000",
"Channel_info_end",
"Channel_info_start",
"Channel : Al",
"Points : 0",
"Range : 0.000000 - 0.000000",
"Step : 0.010000",
"Channel_info_end",
"Channel_info_start",
"Channel : Si",
"Points : 0",
"Range : 0.000000 - 0.000000",
"Step : 0.010000",
"Channel_info_end",
"Channel_info_start",
"Channel : P ",
"Points : 0",
"Range : 0.000000 - 0.000000",
"Step : 0.010000",
"Channel_info_end",
"Channel_info_start",
"Channel : S ",
"Points : 0",
"Range : 0.000000 - 0.000000",
"Step : 0.010000",
"Channel_info_end",
"Channel_info_start",
"Channel : Cl",
"Points : 0",
"Range : 0.000000 - 0.000000",
"Step : 0.010000",
"Channel_info_end",
"Channel_info_start",
"Channel : K ",
"Points : 0",
"Range : 0.000000 - 0.000000",
"Step : 0.010000",
"Channel_info_end",
"Channel_info_start",
"Channel : Ca",
"Points : 0",
"Range : 0.000000 - 0.000000",
"Step : 0.010000",
"Channel_info_end",
"Channel_info_start",
"Channel : Ti",
"Points : 0",
"Range : 0.000000 - 0.000000",
"Step : 0.010000",
"Channel_info_end",
"Channel_info_start",
"Channel : V ",
"Points : 0",
"Range : 0.000000 - 0.000000",
"Step : 0.010000",
"Channel_info_end",
"Channel_info_start",
"Channel : Cr",
"Points : 0",
"Range : 0.000000 - 0.000000",
"Step : 0.010000",
"Channel_info_end",
"Channel_info_start",
"Channel : Mn",
"Points : 0",
"Range : 0.000000 - 0.000000",
"Step : 0.010000",
"Channel_info_end",
"Channel_info_start",
"Channel : Fe",
"Points : 0",
"Range : 0.000000 - 0.000000",
"Step : 0.010000",
"Channel_info_end",
"Channel_info_start",
"Channel : Cu",
"Points : 0",
"Range : 0.000000 - 0.000000",
"Step : 0.010000",
"Channel_info_end",
"Channel_info_start",
"Channel : Zn",
"Points : 0",
"Range : 0.000000 - 0.000000",
"Step : 0.010000",
"Channel_info_end",
"Channel_info_start",
"Channel : Sr",
"Points : 0",
"Range : 0.000000 - 0.000000",
"Step : 0.010000",
"Channel_info_end",
"Channel_info_start",
"Channel : Pb",
"Points : 0",
"Range : 0.000000 - 0.000000",
"Step : 0.010000",
"Channel_info_end",
"",
"Qualitative Result",
"--------------------------------------------------------------------------------",
"Element :  Ca, Rb, Au, Cr, W , Rh",
"",
"Peak List",
"--------------------------------------------------------------------------------",
"Channel               Line        keV     Net Int.(cps/uA)",
"--------------------------------------------------------------------------------",
"Na                    CaLa         0.38     0.019",
"                      RbLa         1.67     0.093",
"                      AuMa         2.15     1.546",
"                      ----         2.43     0.123",
"                      ----         2.80     0.052",
"                      CaKa         3.68     0.157",
"                      CaKb         4.02     0.021",
"                      CrKa         5.46     0.022",
"                      ----         6.22     0.033",
"                      ----         6.41     0.058",
"                      ----         6.58     0.037",
"                      AuLL         8.49     0.200",
"                      W La         8.49     0.177",
"                      W Lb1        9.67     0.142",
"                      AuLa         9.72     6.656",
"                      ----        10.28     0.081",
"                      AuLb4       11.14     0.218",
"                      AuLb1       11.45     3.537",
"                      AuLg1       13.36     0.626",
"                      AuLg2       13.77     0.169",
"                      RhKaC       19.24     0.133",
"                      RhKa        20.09     0.136",
"--------------------------------------------------------------------------------",
"",
"Quantitative Result",
"--------------------------------------------------------------------------------",
"Analyte               Result             Std.Dev. Proc.-Calc. Line Intensity(cps/uA)",
"--------------------------------------------------------------------------------",
"====[No. 1 Layer]====< Layer1               >===============================",
"Layer1                   0.000 ug/cm2    -------- Flux       -------- --------",