Folder: mestrado_ifusp/inputs/edxCalibration/edx_raw/2010/junho (part 18)

File: Y6F3 31518.20100611035933.csv
"Sample    : Y6F3 31518",
"Operator  : Luís",
"Comment  : cubatao-g-policarbonato",
"Group     : kerr2007ag180cal_lt",
"Date       : 2010-06-11 03:55:31",
"",
"Mesurement Condition",
"------------------------------------------------------------------------------------",
"Instrument : 700HS2   Atmosphere : Vac.   Collimator : 10(mm)   Spin : No",
"------------------------------------------------------------------------------------",
"Analyte               TG kV   uA      FI Acq.(keV)  Anal.(keV)  Time(sec)     DT(%)",
"------------------------------------------------------------------------------------",
"Na                    Rh 50  237-Auto Al  0 - 20    0.8 - 1.2   Live -  179   14",
"",
"<Profile>",
"Channel_info_start",
"Channel : Na",
"Points : 2048",
"Range : 0.000000 - 20.48",
"Step : 0.010000",
"Channel_info_end",
"0",
"0",
"0",
"0",
"0",
"12",
"23",
"26",
"16",
"22",
"8",
"20",
"16",
"18",
"16",
"22",
"63",
"172",
"75",
"36",
"78",
"753",
"2176",
"1414",
"242",
"265",
"169",
"55",
"126",
"152",
"43",
"25",
"26",
"37",
"31",
"26",
"18",
"16",
"13",
"29",
"22",
"16",
"9",
"11",
"16",
"18",
"21",
"16",
"23",
"25",
"24",
"98",
"550",
"830",
"253",
"59",
"75",
"136",
"116",
"44",
"36",
"42",
"42",
"63",
"66",
"77",
"76",
"57",
"56",
"40",
"60",
"55",
"47",
"65",
"53",
"63",
"62",
"61",
"61",
"62",
"75",
"90",
"87",
"83",
"65",
"89",
"111",
"98",
"78",
"111",
"104",
"181",
"314",
"691",
"596",
"312",
"173",
"152",
"119",
"127",
"151",
"191",
"216",
"636",
"3212",
"9815",
"12358",
"6701",
"1621",
"423",
"229",
"164",
"146",
"137",
"216",
"349",
"511",
"810",
"2268",
"5833",
"7402",
"5296",
"2348",
"1476",
"1758",
"2327",
"1450",
"582",
"244",
"164",
"136",
"158",
"217",
"263",
"298",
"223",
"208",
"285",
"589",
"1146",
"1187",
"652",
"304",
"349",
"525",
"427",
"318",
"172",
"134",
"153",
"144",
"121",
"112",
"112",
"111",
"122",
"128",
"100",
"87",
"118",
"113",
"108",
"91",
"111",
"89",
"90",
"87",
"99",
"112",
"85",
"87",
"93",
"95",
"99",
"95",
"89",
"75",
"79",
"81",
"91",
"73",
"95",
"91",
"95",
"91",
"86",
"76",
"67",
"80",
"89",
"93",
"85",
"69",
"77",
"64",
"82",
"89",
"78",
"69",
"101",
"74",
"81",
"77",
"66",
"65",
"67",
"77",
"92",
"64",
"81",
"85",
"76",
"86",
"79",
"60",
"69",
"63",
"67",
"54",
"65",
"62",
"51",
"66",
"65",
"63",
"68",
"62",
"70",
"59",
"68",
"68",
"62",
"65",
"67",
"52",
"62",
"53",
"69",
"66",
"53",
"62",
"66",
"63",
"63",
"66",
"51",
"69",
"83",
"56",
"70",
"47",
"62",
"53",
"49",
"57",
"67",
"79",
"55",
"50",
"67",
"68",
"61",
"63",
"82",
"66",
"83",
"101",
"98",
"118",
"169",
"207",
"248",
"298",
"320",
"359",
"335",
"267",
"247",
"197",
"155",
"119",
"80",
"100",
"79",
"128",
"183",
"260",
"253",
"209",
"113",
"91",
"64",
"53",
"25819",
"Channel_info_start",
"Channel : Mg",
"Points : 0",
"Range : 0.000000 - 0.000000",
"Step : 0.010000",
"Channel_info_end",
"Channel_info_start",
"Channel : Al",
"Points : 0",
"Range : 0.000000 - 0.000000",
"Step : 0.010000",
"Channel_info_end",
"Channel_info_start",
"Channel : Si",
"Points : 0",
"Range : 0.000000 - 0.000000",
"Step : 0.010000",
"Channel_info_end",
"Channel_info_start",
"Channel : P ",
"Points : 0",
"Range : 0.000000 - 0.000000",
"Step : 0.010000",
"Channel_info_end",
"Channel_info_start",
"Channel : S ",
"Points : 0",
"Range : 0.000000 - 0.000000",
"Step : 0.010000",
"Channel_info_end",
"Channel_info_start",
"Channel : Cl",
"Points : 0",
"Range : 0.000000 - 0.000000",
"Step : 0.010000",
"Channel_info_end",
"Channel_info_start",
"Channel : K ",
"Points : 0",
"Range : 0.000000 - 0.000000",
"Step : 0.010000",
"Channel_info_end",
"Channel_info_start",
"Channel : Ca",
"Points : 0",
"Range : 0.000000 - 0.000000",
"Step : 0.010000",
"Channel_info_end",
"Channel_info_start",
"Channel : Ti",
"Points : 0",
"Range : 0.000000 - 0.000000",
"Step : 0.010000",
"Channel_info_end",
"Channel_info_start",
"Channel : V ",
"Points : 0",
"Range : 0.000000 - 0.000000",
"Step : 0.010000",
"Channel_info_end",
"Channel_info_start",
"Channel : Cr",
"Points : 0",
"Range : 0.000000 - 0.000000",
"Step : 0.010000",
"Channel_info_end",
"Channel_info_start",
"Channel : Mn",
"Points : 0",
"Range : 0.000000 - 0.000000",
"Step : 0.010000",
"Channel_info_end",
"Channel_info_start",
"Channel : Fe",
"Points : 0",
"Range : 0.000000 - 0.000000",
"Step : 0.010000",
"Channel_info_end",
"Channel_info_start",
"Channel : Cu",
"Points : 0",
"Range : 0.000000 - 0.000000",
"Step : 0.010000",
"Channel_info_end",
"Channel_info_start",
"Channel : Zn",
"Points : 0",
"Range : 0.000000 - 0.000000",
"Step : 0.010000",
"Channel_info_end",
"Channel_info_start",
"Channel : Sr",
"Points : 0",
"Range : 0.000000 - 0.000000",
"Step : 0.010000",
"Channel_info_end",
"Channel_info_start",
"Channel : Pb",
"Points : 0",
"Range : 0.000000 - 0.000000",
"Step : 0.010000",
"Channel_info_end",
"",
"Qualitative Result",
"--------------------------------------------------------------------------------",
"Element :  Mg, Yb, Ta, P , Ca, Dy, Ni, Cu, Ru",
"",
"Peak List",
"--------------------------------------------------------------------------------",
"Channel               Line        keV     Net Int.(cps/uA)",
"--------------------------------------------------------------------------------",
"Na                    MgKa         1.20     0.038",
"                      YbMa         1.55     0.605",
"                      TaMa         1.76     0.056",
"                      P Ka         2.00     0.034",
"                      CaKa         3.69     0.281",
"                      CaKb         4.02     0.041",
"                      YbLL         6.55     0.151",
"                      DyLa         6.55     0.082",
"                      DyLb1        7.25     0.046",
"                      NiKa         7.40     5.040",
"                      TaLa         8.08     0.070",
"                      YbLb4        8.27     0.706",
"                      YbLb1        8.40     2.908",
"                      YbLb2        8.75     0.798",
"                      CuKb         8.91     0.011",
"                      TaLb1        9.34     0.060",
"                      YbLg1        9.76     0.462",
"                      YbLg2       10.09     0.152",
"                      RuKa        19.15     0.130",
"                      ----        19.38     0.074",
"                      ----        19.92     0.046",
"--------------------------------------------------------------------------------",
"",
"Quantitative Result",
"--------------------------------------------------------------------------------",
"Analyte               Result             Std.Dev. Proc.-Calc. Line Intensity(cps/uA)",
"--------------------------------------------------------------------------------",
"====[No. 1 Layer]====< Layer1               >===============================",
"Layer1                  12.502 ug/cm2    -------- Flux       -------- --------",
"Mg                      12.502 ug/cm2    -------- ********** -------- --------",

File: YF3 31506.20100525233733.csv
"Sample    : YF3 31506",
"Operator  : luisf",
"Comment  : cubatao-g-policarbonato",
"Group     : kerr2007ag180cal_lt",
"Date       : 2010-05-25 23:31:39",
"",
"Mesurement Condition",
"------------------------------------------------------------------------------------",
"Instrument : 700HS2   Atmosphere : Vac.   Collimator : 10(mm)   Spin : No",
"------------------------------------------------------------------------------------",
"Analyte               TG kV   uA      FI Acq.(keV)  Anal.(keV)  Time(sec)     DT(%)",
"------------------------------------------------------------------------------------",
"Na                    Rh 50  237-Auto Al  0 - 20    0.8 - 1.2   Live -  178   14",
"",
"<Profile>",
"Channel_info_start",
"Channel : Na",
"Points : 2048",
"Range : 0.000000 - 20.48",
"Step : 0.010000",
"Channel_info_end",
"0",
"0",
"0",
"0",
"0",
"45",
"35",
"28",
"29",
"35",
"43",
"42",
"29",
"34",
"26",
"28",
"20",
"25",
"25",
"23",
"20",
"25",
"56",
"89",
"200",
"230",
"310",
"1362",
"1874",
"1025",
"291",
"83",
"39",
"27",
"34",
"25",
"23",
"23",
"20",
"15",
"23",
"14",
"18",
"13",
"13",
"10",
"16",
"17",
"14",
"25",
"25",
"97",
"584",
"861",
"263",
"51",
"74",
"131",
"107",
"51",
"33",
"24",
"42",
"38",
"42",
"42",
"54",
"62",
"56",
"41",
"31",
"43",
"35",
"39",
"34",
"39",
"56",
"59",
"37",
"43",
"40",
"55",
"51",
"63",
"58",
"56",
"76",
"66",
"70",
"85",
"81",
"95",
"77",
"85",
"91",
"81",
"100",
"112",
"86",
"109",
"94",
"84",
"80",
"89",
"90",
"90",
"73",
"84",
"113",
"76",
"106",
"99",
"110",
"115",
"107",
"158",
"135",
"112",
"81",
"97",
"89",
"100",
"116",
"139",
"114",
"129",
"103",
"102",
"121",
"90",
"83",
"74",
"90",
"96",
"89",
"101",
"90",
"99",
"94",
"91",
"89",
"92",
"90",
"99",
"92",
"91",
"74",
"99",
"88",
"105",
"92",
"96",
"96",
"119",
"80",
"87",
"96",
"86",
"84",
"87",
"82",
"78",
"77",
"83",
"85",
"85",
"76",
"94",
"90",
"70",
"71",
"62",
"75",
"99",
"66",
"78",
"74",
"73",
"94",
"68",
"76",
"82",
"83",
"87",
"75",
"72",
"63",
"82",
"75",
"71",
"64",
"76",
"84",
"74",
"83",
"78",
"67",
"66",
"73",
"96",
"78",
"92",
"73",
"97",
"77",
"91",
"89",
"117",
"168",
"503",
"1829",
"5681",
"10859",
"13721",
"11514",
"6766",
"2556",
"641",
"166",
"102",
"81",
"73",
"81",
"60",
"78",
"90",
"49",
"75",
"64",
"61",
"74",
"67",
"78",
"96",
"104",
"188",
"580",
"1187",
"1886",
"2288",
"1756",
"1060",
"607",
"446",
"302",
"173",
"105",
"49",
"42",
"48",
"35",
"47",
"39",
"45",
"42",
"53",
"48",
"54",
"43",
"63",
"67",
"53",
"55",
"70",
"74",
"81",
"71",
"115",
"95",
"177",
"174",
"254",
"312",
"354",
"290",
"333",
"302",
"242",
"186",
"164",
"116",
"78",
"86",
"102",
"98",
"119",
"142",
"154",
"127",
"111",
"49",
"47",
"61",
"24800",
"Channel_info_start",
"Channel : Mg",
"Points : 0",
"Range : 0.000000 - 0.000000",
"Step : 0.010000",
"Channel_info_end",
"Channel_info_start",
"Channel : Al",
"Points : 0",
"Range : 0.000000 - 0.000000",
"Step : 0.010000",
"Channel_info_end",
"Channel_info_start",
"Channel : Si",
"Points : 0",
"Range : 0.000000 - 0.000000",
"Step : 0.010000",
"Channel_info_end",
"Channel_info_start",
"Channel : P ",
"Points : 0",
"Range : 0.000000 - 0.000000",
"Step : 0.010000",
"Channel_info_end",
"Channel_info_start",
"Channel : S ",
"Points : 0",
"Range : 0.000000 - 0.000000",
"Step : 0.010000",
"Channel_info_end",
"Channel_info_start",
"Channel : Cl",
"Points : 0",
"Range : 0.000000 - 0.000000",
"Step : 0.010000",
"Channel_info_end",
"Channel_info_start",
"Channel : K ",
"Points : 0",
"Range : 0.000000 - 0.000000",
"Step : 0.010000",
"Channel_info_end",
"Channel_info_start",
"Channel : Ca",
"Points : 0",
"Range : 0.000000 - 0.000000",
"Step : 0.010000",
"Channel_info_end",
"Channel_info_start",
"Channel : Ti",
"Points : 0",
"Range : 0.000000 - 0.000000",
"Step : 0.010000",
"Channel_info_end",
"Channel_info_start",
"Channel : V ",
"Points : 0",
"Range : 0.000000 - 0.000000",
"Step : 0.010000",
"Channel_info_end",
"Channel_info_start",
"Channel : Cr",
"Points : 0",
"Range : 0.000000 - 0.000000",
"Step : 0.010000",
"Channel_info_end",
"Channel_info_start",
"Channel : Mn",
"Points : 0",
"Range : 0.000000 - 0.000000",
"Step : 0.010000",
"Channel_info_end",
"Channel_info_start",
"Channel : Fe",
"Points : 0",
"Range : 0.000000 - 0.000000",
"Step : 0.010000",
"Channel_info_end",
"Channel_info_start",
"Channel : Cu",
"Points : 0",
"Range : 0.000000 - 0.000000",
"Step : 0.010000",
"Channel_info_end",
"Channel_info_start",
"Channel : Zn",
"Points : 0",
"Range : 0.000000 - 0.000000",
"Step : 0.010000",
"Channel_info_end",
"Channel_info_start",
"Channel : Sr",
"Points : 0",
"Range : 0.000000 - 0.000000",
"Step : 0.010000",
"Channel_info_end",
"Channel_info_start",
"Channel : Pb",
"Points : 0",
"Range : 0.000000 - 0.000000",
"Step : 0.010000",
"Channel_info_end",
"",
"Qualitative Result",
"--------------------------------------------------------------------------------",
"Element :  Si, Y , Ca, Ru",
"",
"Peak List",
"--------------------------------------------------------------------------------",
"Channel               Line        keV     Net Int.(cps/uA)",
"--------------------------------------------------------------------------------",
"Na                    SiKa         1.71     0.048",
"                      Y La         1.94     0.523",
"                      CaKa         3.69     0.292",
"                      CaKb         4.03     0.034",
"                      Y Ka        14.92     6.752",
"                      Y Kb        16.72     1.106",
"                      ----        17.06     0.115",
"                      RuKa        19.23     0.129",
"                      ----        19.44     0.067",
"                      ----        19.97     0.041",
"--------------------------------------------------------------------------------",
"",
"Quantitative Result",
"--------------------------------------------------------------------------------",
"Analyte               Result             Std.Dev. Proc.-Calc. Line Intensity(cps/uA)",
"--------------------------------------------------------------------------------",
"====[No. 1 Layer]====< Layer1               >===============================",
"Layer1                   0.000 ug/cm2    -------- Flux       -------- --------",

File: ZnTe 31501.20100525221400.csv
"Sample    : ZnTe 31501",
"Operator  : luisf",
"Comment  : cubatao-g-policarbonato",
"Group     : kerr2007ag180cal_lt",
"Date       : 2010-05-25 22:09:56",
"",
"Mesurement Condition",
"------------------------------------------------------------------------------------",
"Instrument : 700HS2   Atmosphere : Vac.   Collimator : 10(mm)   Spin : No",
"------------------------------------------------------------------------------------",
"Analyte               TG kV   uA      FI Acq.(keV)  Anal.(keV)  Time(sec)     DT(%)",
"------------------------------------------------------------------------------------",
"Na                    Rh 50  237-Auto Al  0 - 20    0.8 - 1.2   Live -  180   15",
"",
"<Profile>",
"Channel_info_start",
"Channel : Na",
"Points : 2048",
"Range : 0.000000 - 20.48",
"Step : 0.010000",
"Channel_info_end",
"0",
"0",
"0",
"0",
"0",
"24",
"25",
"23",
"21",
"26",
"31",
"25",
"35",
"47",
"167",
"235",
"73",
"34",
"29",
"26",
"31",
"27",
"36",
"25",
"39",
"33",
"34",
"50",
"99",
"159",
"63",
"27",
"46",
"82",
"39",
"32",
"38",
"25",
"29",
"38",
"32",
"26",
"43",
"39",
"51",
"64",
"94",
"243",
"312",
"172",
"113",
"290",
"1214",
"4617",
"6383",
"2391",
"768",
"3209",
"4070",
"2085",
"754",
"899",
"778",
"264",
"226",
"487",
"383",
"122",
"232",
"347",
"202",
"87",
"45",
"48",
"45",
"37",
"39",
"74",
"66",
"62",
"75",
"85",
"61",
"70",
"72",
"61",
"82",
"76",
"105",
"93",
"106",
"117",
"116",
"123",
"92",
"116",
"108",
"106",
"109",
"129",
"101",
"112",
"105",
"96",
"110",
"126",
"119",
"134",
"112",
"104",
"118",
"119",
"126",
"129",
"124",
"155",
"160",
"137",
"126",
"202",
"405",
"2540",
"9217",
"17218",
"13146",
"4693",
"819",
"210",
"133",
"134",
"142",
"142",
"152",
"168",
"346",
"997",
"2046",
"2140",
"1184",
"410",
"142",
"96",
"105",
"105",
"108",
"94",
"86",
"104",
"85",
"92",
"93",
"106",
"87",
"90",
"81",
"101",
"113",
"100",
"87",
"88",
"99",
"101",
"84",
"83",
"71",
"108",
"93",
"88",
"90",
"99",
"95",
"88",
"81",
"89",
"97",
"105",
"102",
"95",
"90",
"116",
"98",
"87",
"81",
"77",
"90",
"90",
"93",
"72",
"82",
"77",
"85",
"92",
"69",
"66",
"68",
"69",
"78",
"76",
"73",
"70",
"71",
"63",
"85",
"76",
"64",
"66",
"59",
"59",
"66",
"60",
"71",
"68",
"57",
"57",
"69",
"60",
"54",
"63",
"47",
"77",
"76",
"63",
"57",
"63",
"58",
"64",
"46",
"51",
"78",
"60",
"69",
"64",
"63",
"61",
"59",
"60",
"61",
"63",
"51",
"59",
"61",
"61",
"45",
"52",
"54",
"74",
"78",
"62",
"72",
"62",
"62",
"68",
"48",
"57",
"61",
"53",
"65",
"52",
"60",
"63",
"70",
"62",
"73",
"83",
"72",
"72",
"92",
"104",
"132",
"153",
"198",
"241",
"298",
"295",
"385",
"364",
"315",
"254",
"237",
"157",
"121",
"87",
"81",
"109",
"126",
"181",
"217",
"234",
"197",
"136",
"72",
"64",
"51",
"53268",
"Channel_info_start",
"Channel : Mg",
"Points : 0",
"Range : 0.000000 - 0.000000",
"Step : 0.010000",
"Channel_info_end",
"Channel_info_start",
"Channel : Al",
"Points : 0",
"Range : 0.000000 - 0.000000",
"Step : 0.010000",
"Channel_info_end",
"Channel_info_start",
"Channel : Si",
"Points : 0",
"Range : 0.000000 - 0.000000",
"Step : 0.010000",
"Channel_info_end",
"Channel_info_start",
"Channel : P ",
"Points : 0",
"Range : 0.000000 - 0.000000",
"Step : 0.010000",
"Channel_info_end",
"Channel_info_start",
"Channel : S ",
"Points : 0",
"Range : 0.000000 - 0.000000",
"Step : 0.010000",
"Channel_info_end",
"Channel_info_start",
"Channel : Cl",
"Points : 0",
"Range : 0.000000 - 0.000000",
"Step : 0.010000",
"Channel_info_end",
"Channel_info_start",
"Channel : K ",
"Points : 0",
"Range : 0.000000 - 0.000000",
"Step : 0.010000",
"Channel_info_end",
"Channel_info_start",
"Channel : Ca",
"Points : 0",
"Range : 0.000000 - 0.000000",
"Step : 0.010000",
"Channel_info_end",
"Channel_info_start",
"Channel : Ti",
"Points : 0",
"Range : 0.000000 - 0.000000",
"Step : 0.010000",
"Channel_info_end",
"Channel_info_start",
"Channel : V ",
"Points : 0",
"Range : 0.000000 - 0.000000",
"Step : 0.010000",
"Channel_info_end",
"Channel_info_start",
"Channel : Cr",
"Points : 0",
"Range : 0.000000 - 0.000000",
"Step : 0.010000",
"Channel_info_end",
"Channel_info_start",
"Channel : Mn",
"Points : 0",
"Range : 0.000000 - 0.000000",
"Step : 0.010000",
"Channel_info_end",
"Channel_info_start",
"Channel : Fe",
"Points : 0",
"Range : 0.000000 - 0.000000",
"Step : 0.010000",
"Channel_info_end",
"Channel_info_start",
"Channel : Cu",
"Points : 0",
"Range : 0.000000 - 0.000000",
"Step : 0.010000",
"Channel_info_end",
"Channel_info_start",
"Channel : Zn",
"Points : 0",
"Range : 0.000000 - 0.000000",
"Step : 0.010000",
"Channel_info_end",
"Channel_info_start",
"Channel : Sr",
"Points : 0",
"Range : 0.000000 - 0.000000",
"Step : 0.010000",
"Channel_info_end",
"Channel_info_start",
"Channel : Pb",
"Points : 0",
"Range : 0.000000 - 0.000000",
"Step : 0.010000",
"Channel_info_end",
"",
"Qualitative Result",
"--------------------------------------------------------------------------------",
"Element :  Zn, P , Te, K , Ca, Ru",
"",
"Peak List",
"--------------------------------------------------------------------------------",
"Channel               Line        keV     Net Int.(cps/uA)",
"--------------------------------------------------------------------------------",
"Na                    ZnLa         1.03     0.064",
"                      P Ka         2.00     0.038",
"                      TeLL         3.33     0.061",
"                      K Ka         3.33     0.013",
"                      CaKa         3.76     2.205",
"                      CaKb         4.04     0.309",
"                      TeLb1        4.04     1.045",
"                      TeLb2        4.30     0.234",
"                      TeLg1        4.56     0.117",
"                      TeLg2        4.82     0.081",
"                      ZnKa         8.63     6.930",
"                      ZnKb         9.56     0.967",
"                      RuKa        19.17     0.134",
"                      ----        19.45     0.069",
"                      ----        19.94     0.045",
"--------------------------------------------------------------------------------",
"",
"Quantitative Result",
"--------------------------------------------------------------------------------",
"Analyte               Result             Std.Dev. Proc.-Calc. Line Intensity(cps/uA)",
"--------------------------------------------------------------------------------",
"====[No. 1 Layer]====< Layer1               >===============================",
"Layer1                   0.000 ug/cm2    -------- Flux       -------- --------",