Folder: mestrado_ifusp/inputs/edxCalibration/edx_raw/2010/junho (part 16)

File: SrF2 15761.20100525231321.csv
"Sample    : SrF2 15761",
"Operator  : luisf",
"Comment  : cubatao-g-policarbonato",
"Group     : kerr2007ag180cal_lt",
"Date       : 2010-05-25 23:09:17",
"",
"Mesurement Condition",
"------------------------------------------------------------------------------------",
"Instrument : 700HS2   Atmosphere : Vac.   Collimator : 10(mm)   Spin : No",
"------------------------------------------------------------------------------------",
"Analyte               TG kV   uA      FI Acq.(keV)  Anal.(keV)  Time(sec)     DT(%)",
"------------------------------------------------------------------------------------",
"Na                    Rh 50  237-Auto Al  0 - 20    0.8 - 1.2   Live -  179   15",
"",
"<Profile>",
"Channel_info_start",
"Channel : Na",
"Points : 2048",
"Range : 0.000000 - 20.48",
"Step : 0.010000",
"Channel_info_end",
"0",
"0",
"0",
"0",
"0",
"36",
"23",
"48",
"32",
"41",
"36",
"34",
"30",
"39",
"29",
"21",
"17",
"26",
"13",
"18",
"26",
"42",
"90",
"154",
"158",
"929",
"2095",
"1271",
"366",
"121",
"45",
"29",
"34",
"35",
"14",
"6",
"10",
"15",
"18",
"17",
"21",
"17",
"17",
"14",
"22",
"11",
"6",
"15",
"11",
"15",
"29",
"114",
"361",
"566",
"152",
"49",
"44",
"87",
"67",
"40",
"24",
"34",
"30",
"41",
"55",
"55",
"43",
"44",
"52",
"30",
"28",
"27",
"42",
"38",
"31",
"52",
"35",
"57",
"45",
"41",
"32",
"71",
"68",
"56",
"74",
"80",
"64",
"73",
"76",
"69",
"79",
"86",
"110",
"90",
"83",
"94",
"120",
"94",
"101",
"106",
"86",
"108",
"87",
"90",
"88",
"92",
"114",
"118",
"97",
"113",
"97",
"112",
"93",
"117",
"142",
"209",
"261",
"192",
"129",
"116",
"99",
"121",
"110",
"134",
"130",
"101",
"79",
"102",
"100",
"101",
"87",
"113",
"160",
"146",
"134",
"143",
"110",
"117",
"120",
"110",
"97",
"107",
"101",
"93",
"97",
"94",
"110",
"86",
"81",
"100",
"73",
"93",
"62",
"101",
"82",
"91",
"101",
"107",
"90",
"91",
"96",
"88",
"79",
"97",
"101",
"99",
"81",
"104",
"106",
"90",
"87",
"96",
"55",
"67",
"77",
"82",
"92",
"75",
"66",
"103",
"70",
"63",
"71",
"67",
"81",
"87",
"84",
"87",
"96",
"84",
"79",
"90",
"125",
"102",
"93",
"117",
"138",
"199",
"653",
"2824",
"7861",
"14142",
"15898",
"12425",
"5867",
"1819",
"375",
"145",
"88",
"101",
"84",
"69",
"70",
"80",
"68",
"81",
"83",
"93",
"95",
"108",
"104",
"114",
"187",
"484",
"1259",
"2218",
"2539",
"2177",
"1346",
"756",
"443",
"309",
"152",
"84",
"65",
"50",
"42",
"48",
"57",
"47",
"54",
"45",
"49",
"53",
"52",
"48",
"60",
"51",
"63",
"42",
"52",
"45",
"48",
"51",
"53",
"60",
"62",
"45",
"45",
"55",
"55",
"65",
"57",
"62",
"81",
"81",
"75",
"93",
"108",
"132",
"180",
"274",
"297",
"326",
"324",
"339",
"305",
"259",
"176",
"166",
"125",
"83",
"91",
"89",
"100",
"128",
"167",
"158",
"147",
"107",
"69",
"52",
"50",
"26030",
"Channel_info_start",
"Channel : Mg",
"Points : 0",
"Range : 0.000000 - 0.000000",
"Step : 0.010000",
"Channel_info_end",
"Channel_info_start",
"Channel : Al",
"Points : 0",
"Range : 0.000000 - 0.000000",
"Step : 0.010000",
"Channel_info_end",
"Channel_info_start",
"Channel : Si",
"Points : 0",
"Range : 0.000000 - 0.000000",
"Step : 0.010000",
"Channel_info_end",
"Channel_info_start",
"Channel : P ",
"Points : 0",
"Range : 0.000000 - 0.000000",
"Step : 0.010000",
"Channel_info_end",
"Channel_info_start",
"Channel : S ",
"Points : 0",
"Range : 0.000000 - 0.000000",
"Step : 0.010000",
"Channel_info_end",
"Channel_info_start",
"Channel : Cl",
"Points : 0",
"Range : 0.000000 - 0.000000",
"Step : 0.010000",
"Channel_info_end",
"Channel_info_start",
"Channel : K ",
"Points : 0",
"Range : 0.000000 - 0.000000",
"Step : 0.010000",
"Channel_info_end",
"Channel_info_start",
"Channel : Ca",
"Points : 0",
"Range : 0.000000 - 0.000000",
"Step : 0.010000",
"Channel_info_end",
"Channel_info_start",
"Channel : Ti",
"Points : 0",
"Range : 0.000000 - 0.000000",
"Step : 0.010000",
"Channel_info_end",
"Channel_info_start",
"Channel : V ",
"Points : 0",
"Range : 0.000000 - 0.000000",
"Step : 0.010000",
"Channel_info_end",
"Channel_info_start",
"Channel : Cr",
"Points : 0",
"Range : 0.000000 - 0.000000",
"Step : 0.010000",
"Channel_info_end",
"Channel_info_start",
"Channel : Mn",
"Points : 0",
"Range : 0.000000 - 0.000000",
"Step : 0.010000",
"Channel_info_end",
"Channel_info_start",
"Channel : Fe",
"Points : 0",
"Range : 0.000000 - 0.000000",
"Step : 0.010000",
"Channel_info_end",
"Channel_info_start",
"Channel : Cu",
"Points : 0",
"Range : 0.000000 - 0.000000",
"Step : 0.010000",
"Channel_info_end",
"Channel_info_start",
"Channel : Zn",
"Points : 0",
"Range : 0.000000 - 0.000000",
"Step : 0.010000",
"Channel_info_end",
"Channel_info_start",
"Channel : Sr",
"Points : 0",
"Range : 0.000000 - 0.000000",
"Step : 0.010000",
"Channel_info_end",
"Channel_info_start",
"Channel : Pb",
"Points : 0",
"Range : 0.000000 - 0.000000",
"Step : 0.010000",
"Channel_info_end",
"",
"Qualitative Result",
"--------------------------------------------------------------------------------",
"Element :  Ca, Sr, Ta, Rh",
"",
"Peak List",
"--------------------------------------------------------------------------------",
"Channel               Line        keV     Net Int.(cps/uA)",
"--------------------------------------------------------------------------------",
"Na                    CaLa         0.35     0.006",
"                      ----         0.52     0.008",
"                      ----         0.60     0.007",
"                      ----         1.59     0.031",
"                      SrLa         1.81     0.576",
"                      CaKa         3.68     0.187",
"                      CaKb         4.01     0.021",
"                      TaLa         8.15     0.058",
"                      TaLb1        9.32     0.030",
"                      SrKa        14.12     7.914",
"                      SrKb        15.81     1.230",
"                      RhKaC       19.12     0.125",
"                      ----        19.38     0.083",
"                      RhKa        20.11     0.065",
"--------------------------------------------------------------------------------",
"",
"Quantitative Result",
"--------------------------------------------------------------------------------",
"Analyte               Result             Std.Dev. Proc.-Calc. Line Intensity(cps/uA)",
"--------------------------------------------------------------------------------",
"====[No. 1 Layer]====< Layer1               >===============================",
"Layer1                   0.000 ug/cm2    -------- Flux       -------- --------",

File: Te 31510.20100526003900.csv
"Sample    : Te 31510",
"Operator  : luisf",
"Comment  : cubatao-g-policarbonato",
"Group     : kerr2007ag180cal_lt",
"Date       : 2010-05-26 00:34:47",
"",
"Mesurement Condition",
"------------------------------------------------------------------------------------",
"Instrument : 700HS2   Atmosphere : Vac.   Collimator : 10(mm)   Spin : No",
"------------------------------------------------------------------------------------",
"Analyte               TG kV   uA      FI Acq.(keV)  Anal.(keV)  Time(sec)     DT(%)",
"------------------------------------------------------------------------------------",
"Na                    Rh 50  360-Auto Al  0 - 20    0.8 - 1.2   Live -  180   15",
"",
"<Profile>",
"Channel_info_start",
"Channel : Na",
"Points : 2048",
"Range : 0.000000 - 20.48",
"Step : 0.010000",
"Channel_info_end",
"0",
"0",
"0",
"0",
"0",
"48",
"37",
"44",
"43",
"47",
"34",
"47",
"44",
"44",
"48",
"40",
"31",
"46",
"43",
"48",
"35",
"57",
"63",
"51",
"69",
"69",
"60",
"70",
"178",
"293",
"143",
"73",
"111",
"166",
"87",
"57",
"62",
"64",
"67",
"63",
"66",
"89",
"59",
"84",
"89",
"94",
"186",
"573",
"616",
"340",
"220",
"593",
"2242",
"9794",
"14630",
"5683",
"1789",
"7012",
"9302",
"4998",
"1764",
"1944",
"1830",
"613",
"480",
"1099",
"812",
"351",
"529",
"724",
"390",
"148",
"92",
"77",
"66",
"68",
"108",
"121",
"102",
"94",
"66",
"95",
"75",
"82",
"106",
"111",
"117",
"118",
"139",
"143",
"140",
"165",
"150",
"123",
"138",
"131",
"146",
"143",
"153",
"148",
"169",
"150",
"154",
"151",
"186",
"199",
"190",
"205",
"184",
"179",
"153",
"211",
"155",
"175",
"198",
"230",
"208",
"177",
"185",
"183",
"146",
"168",
"193",
"223",
"226",
"155",
"165",
"185",
"187",
"184",
"169",
"192",
"176",
"150",
"150",
"164",
"181",
"166",
"168",
"145",
"158",
"131",
"143",
"157",
"152",
"151",
"127",
"146",
"153",
"151",
"152",
"138",
"160",
"154",
"153",
"155",
"142",
"155",
"156",
"143",
"133",
"136",
"137",
"143",
"142",
"153",
"149",
"126",
"109",
"116",
"126",
"127",
"138",
"122",
"116",
"153",
"132",
"129",
"134",
"114",
"151",
"125",
"111",
"140",
"114",
"122",
"125",
"105",
"131",
"128",
"114",
"132",
"128",
"129",
"122",
"133",
"120",
"106",
"109",
"132",
"127",
"121",
"106",
"117",
"116",
"110",
"94",
"104",
"102",
"103",
"107",
"109",
"110",
"105",
"92",
"116",
"106",
"103",
"95",
"96",
"103",
"95",
"102",
"77",
"114",
"104",
"81",
"107",
"90",
"117",
"89",
"106",
"83",
"83",
"86",
"99",
"109",
"102",
"78",
"93",
"94",
"94",
"98",
"83",
"92",
"86",
"87",
"72",
"87",
"89",
"79",
"89",
"77",
"73",
"108",
"95",
"91",
"98",
"94",
"93",
"105",
"86",
"118",
"103",
"101",
"106",
"121",
"160",
"204",
"235",
"321",
"417",
"445",
"519",
"538",
"489",
"423",
"399",
"302",
"220",
"204",
"163",
"136",
"125",
"205",
"310",
"369",
"379",
"353",
"243",
"143",
"97",
"89",
"103119",
"Channel_info_start",
"Channel : Mg",
"Points : 0",
"Range : 0.000000 - 0.000000",
"Step : 0.010000",
"Channel_info_end",
"Channel_info_start",
"Channel : Al",
"Points : 0",
"Range : 0.000000 - 0.000000",
"Step : 0.010000",
"Channel_info_end",
"Channel_info_start",
"Channel : Si",
"Points : 0",
"Range : 0.000000 - 0.000000",
"Step : 0.010000",
"Channel_info_end",
"Channel_info_start",
"Channel : P ",
"Points : 0",
"Range : 0.000000 - 0.000000",
"Step : 0.010000",
"Channel_info_end",
"Channel_info_start",
"Channel : S ",
"Points : 0",
"Range : 0.000000 - 0.000000",
"Step : 0.010000",
"Channel_info_end",
"Channel_info_start",
"Channel : Cl",
"Points : 0",
"Range : 0.000000 - 0.000000",
"Step : 0.010000",
"Channel_info_end",
"Channel_info_start",
"Channel : K ",
"Points : 0",
"Range : 0.000000 - 0.000000",
"Step : 0.010000",
"Channel_info_end",
"Channel_info_start",
"Channel : Ca",
"Points : 0",
"Range : 0.000000 - 0.000000",
"Step : 0.010000",
"Channel_info_end",
"Channel_info_start",
"Channel : Ti",
"Points : 0",
"Range : 0.000000 - 0.000000",
"Step : 0.010000",
"Channel_info_end",
"Channel_info_start",
"Channel : V ",
"Points : 0",
"Range : 0.000000 - 0.000000",
"Step : 0.010000",
"Channel_info_end",
"Channel_info_start",
"Channel : Cr",
"Points : 0",
"Range : 0.000000 - 0.000000",
"Step : 0.010000",
"Channel_info_end",
"Channel_info_start",
"Channel : Mn",
"Points : 0",
"Range : 0.000000 - 0.000000",
"Step : 0.010000",
"Channel_info_end",
"Channel_info_start",
"Channel : Fe",
"Points : 0",
"Range : 0.000000 - 0.000000",
"Step : 0.010000",
"Channel_info_end",
"Channel_info_start",
"Channel : Cu",
"Points : 0",
"Range : 0.000000 - 0.000000",
"Step : 0.010000",
"Channel_info_end",
"Channel_info_start",
"Channel : Zn",
"Points : 0",
"Range : 0.000000 - 0.000000",
"Step : 0.010000",
"Channel_info_end",
"Channel_info_start",
"Channel : Sr",
"Points : 0",
"Range : 0.000000 - 0.000000",
"Step : 0.010000",
"Channel_info_end",
"Channel_info_start",
"Channel : Pb",
"Points : 0",
"Range : 0.000000 - 0.000000",
"Step : 0.010000",
"Channel_info_end",
"",
"Qualitative Result",
"--------------------------------------------------------------------------------",
"Element :  P , S , Te, K , Ca, Ru",
"",
"Peak List",
"--------------------------------------------------------------------------------",
"Channel               Line        keV     Net Int.(cps/uA)",
"--------------------------------------------------------------------------------",
"Na                    P Ka         2.00     0.044",
"                      S Ka         2.29     0.017",
"                      TeLL         3.34     0.092",
"                      K Ka         3.34     0.028",
"                      CaKa         3.76     3.222",
"                      CaKb         4.04     0.451",
"                      TeLb1        4.04     1.570",
"                      TeLb2        4.30     0.357",
"                      TeLg1        4.58     0.174",
"                      TeLg2        4.81     0.128",
"                      RuKa        19.20     0.136",
"                      ----        19.49     0.054",
"--------------------------------------------------------------------------------",
"",
"Quantitative Result",
"--------------------------------------------------------------------------------",
"Analyte               Result             Std.Dev. Proc.-Calc. Line Intensity(cps/uA)",
"--------------------------------------------------------------------------------",
"====[No. 1 Layer]====< Layer1               >===============================",
"Layer1                   0.000 ug/cm2    -------- Flux       -------- --------",

File: Te 31510.20100611033228.csv
"Sample    : Te 31510",
"Operator  : Luís",
"Comment  : cubatao-g-policarbonato",
"Group     : kerr2007ag180cal_lt",
"Date       : 2010-06-11 03:28:15",
"",
"Mesurement Condition",
"------------------------------------------------------------------------------------",
"Instrument : 700HS2   Atmosphere : Vac.   Collimator : 10(mm)   Spin : No",
"------------------------------------------------------------------------------------",
"Analyte               TG kV   uA      FI Acq.(keV)  Anal.(keV)  Time(sec)     DT(%)",
"------------------------------------------------------------------------------------",
"Na                    Rh 50  360-Auto Al  0 - 20    0.8 - 1.2   Live -  180   15",
"",
"<Profile>",
"Channel_info_start",
"Channel : Na",
"Points : 2048",
"Range : 0.000000 - 20.48",
"Step : 0.010000",
"Channel_info_end",
"0",
"0",
"0",
"0",
"0",
"60",
"47",
"43",
"60",
"43",
"36",
"32",
"44",
"55",
"51",
"43",
"34",
"39",
"36",
"43",
"47",
"57",
"50",
"54",
"52",
"44",
"61",
"93",
"202",
"274",
"105",
"96",
"125",
"132",
"100",
"76",
"63",
"80",
"74",
"61",
"56",
"78",
"76",
"79",
"87",
"104",
"191",
"522",
"623",
"301",
"247",
"577",
"2274",
"10167",
"14368",
"5407",
"1773",
"7272",
"8951",
"4767",
"1663",
"1918",
"1649",
"604",
"479",
"1149",
"766",
"305",
"554",
"714",
"360",
"133",
"75",
"48",
"62",
"106",
"110",
"104",
"115",
"112",
"76",
"87",
"87",
"92",
"86",
"137",
"125",
"137",
"128",
"177",
"123",
"164",
"120",
"111",
"145",
"141",
"147",
"152",
"162",
"154",
"149",
"155",
"150",
"197",
"180",
"197",
"197",
"173",
"202",
"158",
"132",
"189",
"156",
"195",
"190",
"221",
"185",
"185",
"161",
"177",
"144",
"181",
"177",
"250",
"227",
"189",
"180",
"202",
"186",
"186",
"169",
"187",
"188",
"163",
"158",
"183",
"181",
"157",
"150",
"159",
"174",
"130",
"128",
"147",
"166",
"146",
"146",
"166",
"141",
"161",
"159",
"167",
"149",
"164",
"140",
"159",
"151",
"186",
"155",
"146",
"142",
"167",
"157",
"158",
"151",
"138",
"118",
"144",
"139",
"130",
"126",
"125",
"142",
"135",
"144",
"151",
"103",
"147",
"130",
"123",
"112",
"137",
"133",
"134",
"121",
"158",
"126",
"140",
"131",
"119",
"110",
"114",
"122",
"117",
"117",
"143",
"118",
"99",
"103",
"135",
"111",
"106",
"110",
"98",
"104",
"122",
"100",
"121",
"104",
"111",
"99",
"103",
"98",
"95",
"104",
"105",
"120",
"99",
"97",
"110",
"103",
"94",
"86",
"110",
"85",
"94",
"86",
"103",
"105",
"72",
"88",
"104",
"104",
"78",
"97",
"114",
"94",
"81",
"97",
"86",
"95",
"91",
"91",
"100",
"76",
"87",
"95",
"92",
"86",
"94",
"82",
"105",
"93",
"81",
"75",
"91",
"97",
"79",
"102",
"123",
"116",
"93",
"91",
"127",
"110",
"158",
"134",
"190",
"186",
"257",
"319",
"365",
"483",
"487",
"499",
"540",
"449",
"348",
"317",
"251",
"181",
"146",
"138",
"131",
"201",
"297",
"379",
"378",
"300",
"204",
"133",
"74",
"82",
"103421",
"Channel_info_start",
"Channel : Mg",
"Points : 0",
"Range : 0.000000 - 0.000000",
"Step : 0.010000",
"Channel_info_end",
"Channel_info_start",
"Channel : Al",
"Points : 0",
"Range : 0.000000 - 0.000000",
"Step : 0.010000",
"Channel_info_end",
"Channel_info_start",
"Channel : Si",
"Points : 0",
"Range : 0.000000 - 0.000000",
"Step : 0.010000",
"Channel_info_end",
"Channel_info_start",
"Channel : P ",
"Points : 0",
"Range : 0.000000 - 0.000000",
"Step : 0.010000",
"Channel_info_end",
"Channel_info_start",
"Channel : S ",
"Points : 0",
"Range : 0.000000 - 0.000000",
"Step : 0.010000",
"Channel_info_end",
"Channel_info_start",
"Channel : Cl",
"Points : 0",
"Range : 0.000000 - 0.000000",
"Step : 0.010000",
"Channel_info_end",
"Channel_info_start",
"Channel : K ",
"Points : 0",
"Range : 0.000000 - 0.000000",
"Step : 0.010000",
"Channel_info_end",
"Channel_info_start",
"Channel : Ca",
"Points : 0",
"Range : 0.000000 - 0.000000",
"Step : 0.010000",
"Channel_info_end",
"Channel_info_start",
"Channel : Ti",
"Points : 0",
"Range : 0.000000 - 0.000000",
"Step : 0.010000",
"Channel_info_end",
"Channel_info_start",
"Channel : V ",
"Points : 0",
"Range : 0.000000 - 0.000000",
"Step : 0.010000",
"Channel_info_end",
"Channel_info_start",
"Channel : Cr",
"Points : 0",
"Range : 0.000000 - 0.000000",
"Step : 0.010000",
"Channel_info_end",
"Channel_info_start",
"Channel : Mn",
"Points : 0",
"Range : 0.000000 - 0.000000",
"Step : 0.010000",
"Channel_info_end",
"Channel_info_start",
"Channel : Fe",
"Points : 0",
"Range : 0.000000 - 0.000000",
"Step : 0.010000",
"Channel_info_end",
"Channel_info_start",
"Channel : Cu",
"Points : 0",
"Range : 0.000000 - 0.000000",
"Step : 0.010000",
"Channel_info_end",
"Channel_info_start",
"Channel : Zn",
"Points : 0",
"Range : 0.000000 - 0.000000",
"Step : 0.010000",
"Channel_info_end",
"Channel_info_start",
"Channel : Sr",
"Points : 0",
"Range : 0.000000 - 0.000000",
"Step : 0.010000",
"Channel_info_end",
"Channel_info_start",
"Channel : Pb",
"Points : 0",
"Range : 0.000000 - 0.000000",
"Step : 0.010000",
"Channel_info_end",
"",
"Qualitative Result",
"--------------------------------------------------------------------------------",
"Element :  P , S , Te, Ca, Ru",
"",
"Peak List",
"--------------------------------------------------------------------------------",
"Channel               Line        keV     Net Int.(cps/uA)",
"--------------------------------------------------------------------------------",
"Na                    P Ka         2.01     0.051",
"                      S Ka         2.29     0.016",
"                      TeLL         3.32     0.104",
"                      CaKa         3.76     3.189",
"                      CaKb         4.04     0.446",
"                      TeLb1        4.04     1.582",
"                      TeLb2        4.30     0.358",
"                      TeLg1        4.56     0.177",
"                      TeLg2        4.82     0.120",
"                      RuKa        19.24     0.131",
"--------------------------------------------------------------------------------",
"",
"Quantitative Result",
"--------------------------------------------------------------------------------",
"Analyte               Result             Std.Dev. Proc.-Calc. Line Intensity(cps/uA)",
"--------------------------------------------------------------------------------",
"====[No. 1 Layer]====< Layer1               >===============================",
"Layer1                   0.000 ug/cm2    -------- Flux       -------- --------",

File: Te 31510.20100626145425.csv
"Sample    : Te 31510",
"Operator  : thiago",
"Comment  : cubatao-g-policarbonato",
"Group     : kerr2007ag180cal_lt",
"Date       : 2010-06-26 14:48:16",
"",
"Mesurement Condition",
"------------------------------------------------------------------------------------",
"Instrument : 700HS2   Atmosphere : Vac.   Collimator : 10(mm)   Spin : No",
"------------------------------------------------------------------------------------",
"Analyte               TG kV   uA      FI Acq.(keV)  Anal.(keV)  Time(sec)     DT(%)",
"------------------------------------------------------------------------------------",
"Na                    Rh 50  360-Auto Al  0 - 20    0.8 - 1.2   Live -  180   15",
"",
"<Profile>",
"Channel_info_start",
"Channel : Na",
"Points : 2048",
"Range : 0.000000 - 20.48",
"Step : 0.010000",
"Channel_info_end",
"0",
"0",
"0",
"0",
"0",
"32",
"29",
"44",
"47",
"48",
"41",
"41",
"49",
"46",
"55",
"44",
"43",
"45",
"31",
"47",
"50",
"76",
"57",
"50",
"56",
"68",
"50",
"76",
"181",
"289",
"109",
"61",
"115",
"139",
"96",
"58",
"76",
"60",
"56",
"75",
"62",
"95",
"64",
"73",
"85",
"122",
"135",
"531",
"682",
"347",
"236",
"550",
"2027",
"8972",
"14411",
"5798",
"1671",
"6623",
"9165",
"4982",
"1767",
"1869",
"1803",
"646",
"465",
"1046",
"875",
"362",
"472",
"754",
"446",
"165",
"89",
"65",
"89",
"87",
"93",
"82",
"104",
"115",
"82",
"80",
"75",
"74",
"113",
"93",
"107",
"129",
"133",
"145",
"136",
"148",
"134",
"135",
"115",
"124",
"146",
"169",
"140",
"139",
"144",
"159",
"156",
"183",
"177",
"161",
"169",
"188",
"167",
"181",
"167",
"171",
"199",
"211",
"203",
"215",
"183",
"177",
"157",
"144",
"135",
"171",
"178",
"221",
"226",
"182",
"170",
"204",
"189",
"179",
"179",
"190",
"159",
"144",
"158",
"166",
"169",
"149",
"152",
"164",
"152",
"180",
"109",
"149",
"152",
"139",
"148",
"154",
"169",
"153",
"155",
"163",
"172",
"166",
"146",
"160",
"164",
"132",
"125",
"157",
"167",
"157",
"127",
"148",
"130",
"127",
"143",
"149",
"147",
"127",
"131",
"134",
"129",
"124",
"128",
"141",
"120",
"130",
"133",
"127",
"136",
"124",
"139",
"127",
"129",
"106",
"137",
"130",
"137",
"115",
"113",
"128",
"155",
"135",
"117",
"115",
"113",
"106",
"120",
"119",
"135",
"120",
"115",
"120",
"107",
"91",
"123",
"98",
"117",
"95",
"112",
"105",
"112",
"122",
"98",
"87",
"104",
"98",
"98",
"104",
"105",
"87",
"86",
"104",
"107",
"96",
"87",
"116",
"96",
"105",
"86",
"94",
"93",
"85",
"85",
"96",
"95",
"89",
"93",
"88",
"83",
"109",
"95",
"76",
"103",
"69",
"76",
"71",
"94",
"101",
"93",
"104",
"84",
"73",
"81",
"84",
"106",
"89",
"116",
"98",
"84",
"109",
"79",
"88",
"116",
"128",
"135",
"141",
"192",
"235",
"297",
"374",
"452",
"501",
"575",
"491",
"523",
"392",
"304",
"257",
"192",
"149",
"115",
"135",
"170",
"232",
"335",
"397",
"350",
"250",
"131",
"89",
"83",
"102243",
"Channel_info_start",
"Channel : Mg",
"Points : 0",
"Range : 0.000000 - 0.000000",
"Step : 0.010000",
"Channel_info_end",
"Channel_info_start",
"Channel : Al",
"Points : 0",
"Range : 0.000000 - 0.000000",
"Step : 0.010000",
"Channel_info_end",
"Channel_info_start",
"Channel : Si",
"Points : 0",
"Range : 0.000000 - 0.000000",
"Step : 0.010000",
"Channel_info_end",
"Channel_info_start",
"Channel : P ",
"Points : 0",
"Range : 0.000000 - 0.000000",
"Step : 0.010000",
"Channel_info_end",
"Channel_info_start",
"Channel : S ",
"Points : 0",
"Range : 0.000000 - 0.000000",
"Step : 0.010000",
"Channel_info_end",
"Channel_info_start",
"Channel : Cl",
"Points : 0",
"Range : 0.000000 - 0.000000",
"Step : 0.010000",
"Channel_info_end",
"Channel_info_start",
"Channel : K ",
"Points : 0",
"Range : 0.000000 - 0.000000",
"Step : 0.010000",
"Channel_info_end",
"Channel_info_start",
"Channel : Ca",
"Points : 0",
"Range : 0.000000 - 0.000000",
"Step : 0.010000",
"Channel_info_end",
"Channel_info_start",
"Channel : Ti",
"Points : 0",
"Range : 0.000000 - 0.000000",
"Step : 0.010000",
"Channel_info_end",
"Channel_info_start",
"Channel : V ",
"Points : 0",
"Range : 0.000000 - 0.000000",
"Step : 0.010000",
"Channel_info_end",
"Channel_info_start",
"Channel : Cr",
"Points : 0",
"Range : 0.000000 - 0.000000",
"Step : 0.010000",
"Channel_info_end",
"Channel_info_start",
"Channel : Mn",
"Points : 0",
"Range : 0.000000 - 0.000000",
"Step : 0.010000",
"Channel_info_end",
"Channel_info_start",
"Channel : Fe",
"Points : 0",
"Range : 0.000000 - 0.000000",
"Step : 0.010000",
"Channel_info_end",
"Channel_info_start",
"Channel : Cu",
"Points : 0",
"Range : 0.000000 - 0.000000",
"Step : 0.010000",
"Channel_info_end",
"Channel_info_start",
"Channel : Zn",
"Points : 0",
"Range : 0.000000 - 0.000000",
"Step : 0.010000",
"Channel_info_end",
"Channel_info_start",
"Channel : Sr",
"Points : 0",
"Range : 0.000000 - 0.000000",
"Step : 0.010000",
"Channel_info_end",
"Channel_info_start",
"Channel : Pb",
"Points : 0",
"Range : 0.000000 - 0.000000",
"Step : 0.010000",
"Channel_info_end",
"",
"Qualitative Result",
"--------------------------------------------------------------------------------",
"Element :  P , S , Te, K , Ca, Rh",
"",
"Peak List",
"--------------------------------------------------------------------------------",
"Channel               Line        keV     Net Int.(cps/uA)",
"--------------------------------------------------------------------------------",
"Na                    P Ka         2.02     0.044",
"                      S Ka         2.28     0.017",
"                      TeLL         3.34     0.091",
"                      K Ka         3.34     0.017",
"                      CaKa         3.76     3.118",
"                      CaKb         4.04     0.437",
"                      TeLb1        4.04     1.554",
"                      TeLb2        4.31     0.355",
"                      TeLg1        4.57     0.178",
"                      TeLg2        4.82     0.126",
"                      RhKaC       19.20     0.127",
"                      ----        19.45     0.061",
"                      RhKa        20.05     0.095",
"--------------------------------------------------------------------------------",
"",
"Quantitative Result",
"--------------------------------------------------------------------------------",
"Analyte               Result             Std.Dev. Proc.-Calc. Line Intensity(cps/uA)",
"--------------------------------------------------------------------------------",
"====[No. 1 Layer]====< Layer1               >===============================",
"Layer1                   0.000 ug/cm2    -------- Flux       -------- --------",