Folder: mestrado_ifusp/inputs/edxCalibration/edx_raw/2010/junho (part 3)

File: BaF2 31514.20100526004310.csv
"Sample    : BaF2 31514",
"Operator  : luisf",
"Comment  : cubatao-g-policarbonato",
"Group     : kerr2007ag180cal_lt",
"Date       : 2010-05-26 00:38:59",
"",
"Mesurement Condition",
"------------------------------------------------------------------------------------",
"Instrument : 700HS2   Atmosphere : Vac.   Collimator : 10(mm)   Spin : No",
"------------------------------------------------------------------------------------",
"Analyte               TG kV   uA      FI Acq.(keV)  Anal.(keV)  Time(sec)     DT(%)",
"------------------------------------------------------------------------------------",
"Na                    Rh 50  360-Auto Al  0 - 20    0.8 - 1.2   Live -  179   15",
"",
"<Profile>",
"Channel_info_start",
"Channel : Na",
"Points : 2048",
"Range : 0.000000 - 20.48",
"Step : 0.010000",
"Channel_info_end",
"0",
"0",
"0",
"0",
"0",
"28",
"25",
"28",
"23",
"26",
"25",
"42",
"45",
"28",
"46",
"71",
"49",
"31",
"29",
"38",
"36",
"26",
"32",
"35",
"36",
"63",
"51",
"59",
"115",
"109",
"37",
"45",
"33",
"32",
"32",
"39",
"26",
"63",
"107",
"144",
"78",
"53",
"46",
"65",
"98",
"88",
"59",
"48",
"58",
"56",
"69",
"227",
"902",
"1434",
"442",
"254",
"620",
"856",
"355",
"188",
"162",
"362",
"1763",
"10227",
"15099",
"5655",
"695",
"782",
"4523",
"9715",
"6429",
"2537",
"1014",
"1982",
"2340",
"955",
"231",
"256",
"760",
"1387",
"751",
"357",
"522",
"744",
"393",
"248",
"200",
"146",
"129",
"124",
"145",
"208",
"168",
"166",
"161",
"133",
"117",
"136",
"117",
"113",
"134",
"132",
"146",
"147",
"147",
"149",
"160",
"146",
"145",
"171",
"145",
"163",
"185",
"221",
"198",
"216",
"198",
"196",
"149",
"158",
"132",
"191",
"191",
"217",
"209",
"165",
"167",
"181",
"169",
"161",
"183",
"186",
"172",
"185",
"178",
"187",
"146",
"154",
"145",
"171",
"138",
"143",
"135",
"158",
"144",
"138",
"133",
"149",
"141",
"126",
"136",
"159",
"148",
"161",
"147",
"146",
"141",
"166",
"151",
"131",
"131",
"151",
"138",
"145",
"137",
"141",
"125",
"154",
"112",
"129",
"133",
"127",
"138",
"127",
"143",
"126",
"129",
"134",
"117",
"132",
"131",
"130",
"130",
"124",
"135",
"130",
"108",
"105",
"114",
"118",
"132",
"126",
"125",
"123",
"107",
"100",
"121",
"111",
"121",
"94",
"129",
"141",
"130",
"120",
"96",
"110",
"87",
"108",
"121",
"118",
"101",
"101",
"102",
"105",
"94",
"80",
"94",
"92",
"85",
"82",
"87",
"94",
"92",
"96",
"107",
"90",
"85",
"72",
"84",
"78",
"74",
"74",
"96",
"92",
"72",
"82",
"77",
"80",
"88",
"98",
"78",
"82",
"70",
"80",
"96",
"93",
"80",
"97",
"92",
"84",
"85",
"90",
"86",
"76",
"93",
"84",
"96",
"80",
"101",
"96",
"113",
"94",
"78",
"113",
"121",
"122",
"136",
"153",
"163",
"229",
"284",
"381",
"434",
"497",
"496",
"512",
"455",
"389",
"306",
"231",
"174",
"138",
"123",
"130",
"185",
"257",
"285",
"377",
"333",
"179",
"131",
"97",
"77",
"52486",
"Channel_info_start",
"Channel : Mg",
"Points : 0",
"Range : 0.000000 - 0.000000",
"Step : 0.010000",
"Channel_info_end",
"Channel_info_start",
"Channel : Al",
"Points : 0",
"Range : 0.000000 - 0.000000",
"Step : 0.010000",
"Channel_info_end",
"Channel_info_start",
"Channel : Si",
"Points : 0",
"Range : 0.000000 - 0.000000",
"Step : 0.010000",
"Channel_info_end",
"Channel_info_start",
"Channel : P ",
"Points : 0",
"Range : 0.000000 - 0.000000",
"Step : 0.010000",
"Channel_info_end",
"Channel_info_start",
"Channel : S ",
"Points : 0",
"Range : 0.000000 - 0.000000",
"Step : 0.010000",
"Channel_info_end",
"Channel_info_start",
"Channel : Cl",
"Points : 0",
"Range : 0.000000 - 0.000000",
"Step : 0.010000",
"Channel_info_end",
"Channel_info_start",
"Channel : K ",
"Points : 0",
"Range : 0.000000 - 0.000000",
"Step : 0.010000",
"Channel_info_end",
"Channel_info_start",
"Channel : Ca",
"Points : 0",
"Range : 0.000000 - 0.000000",
"Step : 0.010000",
"Channel_info_end",
"Channel_info_start",
"Channel : Ti",
"Points : 0",
"Range : 0.000000 - 0.000000",
"Step : 0.010000",
"Channel_info_end",
"Channel_info_start",
"Channel : V ",
"Points : 0",
"Range : 0.000000 - 0.000000",
"Step : 0.010000",
"Channel_info_end",
"Channel_info_start",
"Channel : Cr",
"Points : 0",
"Range : 0.000000 - 0.000000",
"Step : 0.010000",
"Channel_info_end",
"Channel_info_start",
"Channel : Mn",
"Points : 0",
"Range : 0.000000 - 0.000000",
"Step : 0.010000",
"Channel_info_end",
"Channel_info_start",
"Channel : Fe",
"Points : 0",
"Range : 0.000000 - 0.000000",
"Step : 0.010000",
"Channel_info_end",
"Channel_info_start",
"Channel : Cu",
"Points : 0",
"Range : 0.000000 - 0.000000",
"Step : 0.010000",
"Channel_info_end",
"Channel_info_start",
"Channel : Zn",
"Points : 0",
"Range : 0.000000 - 0.000000",
"Step : 0.010000",
"Channel_info_end",
"Channel_info_start",
"Channel : Sr",
"Points : 0",
"Range : 0.000000 - 0.000000",
"Step : 0.010000",
"Channel_info_end",
"Channel_info_start",
"Channel : Pb",
"Points : 0",
"Range : 0.000000 - 0.000000",
"Step : 0.010000",
"Channel_info_end",
"",
"Qualitative Result",
"--------------------------------------------------------------------------------",
"Element :  P , Ba, Ca, Pr, Ru",
"",
"Peak List",
"--------------------------------------------------------------------------------",
"Channel               Line        keV     Net Int.(cps/uA)",
"--------------------------------------------------------------------------------",
"Na                    P Ka         1.99     0.021",
"                      BaLaESC      2.71     0.024",
"                      CaKa         3.70     0.286",
"                      BaLL         3.96     0.151",
"                      BaLa         4.47     3.330",
"                      BaLb1        4.84     2.137",
"                      BaLb2        5.17     0.515",
"                      BaLg1        5.52     0.200",
"                      PrLb1        5.52     0.079",
"                      BaLg2        5.80     0.142",
"                      ----        19.12     0.126",
"                      RuKa        19.36     0.088",
"                      ----        19.88     0.028",
"--------------------------------------------------------------------------------",
"",
"Quantitative Result",
"--------------------------------------------------------------------------------",
"Analyte               Result             Std.Dev. Proc.-Calc. Line Intensity(cps/uA)",
"--------------------------------------------------------------------------------",
"====[No. 1 Layer]====< Layer1               >===============================",
"Layer1                   0.000 ug/cm2    -------- Flux       -------- --------",

File: BaF2 31514.20100626145838.csv
"Sample    : BaF2 31514",
"Operator  : thiago",
"Comment  : cubatao-g-policarbonato",
"Group     : kerr2007ag180cal_lt",
"Date       : 2010-06-26 14:54:24",
"",
"Mesurement Condition",
"------------------------------------------------------------------------------------",
"Instrument : 700HS2   Atmosphere : Vac.   Collimator : 10(mm)   Spin : No",
"------------------------------------------------------------------------------------",
"Analyte               TG kV   uA      FI Acq.(keV)  Anal.(keV)  Time(sec)     DT(%)",
"------------------------------------------------------------------------------------",
"Na                    Rh 50  393-Auto Al  0 - 20    0.8 - 1.2   Live -  179   16",
"",
"<Profile>",
"Channel_info_start",
"Channel : Na",
"Points : 2048",
"Range : 0.000000 - 20.48",
"Step : 0.010000",
"Channel_info_end",
"0",
"0",
"0",
"0",
"0",
"31",
"37",
"41",
"31",
"36",
"39",
"54",
"46",
"42",
"49",
"78",
"42",
"32",
"37",
"41",
"33",
"38",
"41",
"46",
"33",
"77",
"47",
"59",
"91",
"127",
"54",
"53",
"47",
"43",
"28",
"49",
"47",
"48",
"110",
"173",
"78",
"50",
"46",
"62",
"114",
"81",
"49",
"37",
"59",
"65",
"71",
"256",
"1029",
"1420",
"519",
"263",
"647",
"857",
"443",
"222",
"198",
"377",
"1782",
"10304",
"15920",
"6349",
"753",
"736",
"4808",
"10084",
"7082",
"2810",
"1072",
"2057",
"2446",
"1075",
"279",
"259",
"759",
"1332",
"922",
"405",
"567",
"792",
"472",
"263",
"209",
"155",
"123",
"129",
"137",
"184",
"160",
"174",
"139",
"171",
"156",
"126",
"124",
"107",
"139",
"132",
"149",
"173",
"151",
"173",
"183",
"170",
"174",
"153",
"167",
"175",
"144",
"221",
"214",
"259",
"228",
"196",
"146",
"153",
"158",
"183",
"192",
"212",
"210",
"162",
"165",
"201",
"216",
"172",
"163",
"192",
"174",
"185",
"225",
"194",
"194",
"201",
"199",
"165",
"151",
"150",
"155",
"171",
"156",
"151",
"137",
"144",
"173",
"169",
"169",
"190",
"160",
"132",
"168",
"174",
"133",
"150",
"158",
"173",
"160",
"168",
"150",
"161",
"142",
"170",
"149",
"164",
"158",
"140",
"133",
"169",
"116",
"130",
"136",
"134",
"152",
"133",
"130",
"146",
"130",
"152",
"112",
"139",
"125",
"136",
"123",
"141",
"90",
"139",
"132",
"123",
"124",
"110",
"106",
"111",
"125",
"124",
"139",
"128",
"157",
"127",
"121",
"136",
"144",
"118",
"102",
"95",
"114",
"110",
"96",
"102",
"122",
"89",
"95",
"108",
"103",
"95",
"89",
"115",
"113",
"81",
"82",
"103",
"94",
"89",
"107",
"112",
"99",
"114",
"84",
"102",
"91",
"82",
"96",
"110",
"90",
"92",
"88",
"105",
"94",
"102",
"92",
"104",
"98",
"92",
"83",
"111",
"68",
"85",
"85",
"72",
"108",
"87",
"80",
"91",
"96",
"106",
"93",
"94",
"101",
"111",
"95",
"108",
"150",
"135",
"134",
"173",
"183",
"230",
"275",
"426",
"461",
"584",
"536",
"556",
"510",
"434",
"334",
"285",
"210",
"169",
"153",
"162",
"161",
"264",
"358",
"389",
"346",
"233",
"140",
"83",
"91",
"56876",
"Channel_info_start",
"Channel : Mg",
"Points : 0",
"Range : 0.000000 - 0.000000",
"Step : 0.010000",
"Channel_info_end",
"Channel_info_start",
"Channel : Al",
"Points : 0",
"Range : 0.000000 - 0.000000",
"Step : 0.010000",
"Channel_info_end",
"Channel_info_start",
"Channel : Si",
"Points : 0",
"Range : 0.000000 - 0.000000",
"Step : 0.010000",
"Channel_info_end",
"Channel_info_start",
"Channel : P ",
"Points : 0",
"Range : 0.000000 - 0.000000",
"Step : 0.010000",
"Channel_info_end",
"Channel_info_start",
"Channel : S ",
"Points : 0",
"Range : 0.000000 - 0.000000",
"Step : 0.010000",
"Channel_info_end",
"Channel_info_start",
"Channel : Cl",
"Points : 0",
"Range : 0.000000 - 0.000000",
"Step : 0.010000",
"Channel_info_end",
"Channel_info_start",
"Channel : K ",
"Points : 0",
"Range : 0.000000 - 0.000000",
"Step : 0.010000",
"Channel_info_end",
"Channel_info_start",
"Channel : Ca",
"Points : 0",
"Range : 0.000000 - 0.000000",
"Step : 0.010000",
"Channel_info_end",
"Channel_info_start",
"Channel : Ti",
"Points : 0",
"Range : 0.000000 - 0.000000",
"Step : 0.010000",
"Channel_info_end",
"Channel_info_start",
"Channel : V ",
"Points : 0",
"Range : 0.000000 - 0.000000",
"Step : 0.010000",
"Channel_info_end",
"Channel_info_start",
"Channel : Cr",
"Points : 0",
"Range : 0.000000 - 0.000000",
"Step : 0.010000",
"Channel_info_end",
"Channel_info_start",
"Channel : Mn",
"Points : 0",
"Range : 0.000000 - 0.000000",
"Step : 0.010000",
"Channel_info_end",
"Channel_info_start",
"Channel : Fe",
"Points : 0",
"Range : 0.000000 - 0.000000",
"Step : 0.010000",
"Channel_info_end",
"Channel_info_start",
"Channel : Cu",
"Points : 0",
"Range : 0.000000 - 0.000000",
"Step : 0.010000",
"Channel_info_end",
"Channel_info_start",
"Channel : Zn",
"Points : 0",
"Range : 0.000000 - 0.000000",
"Step : 0.010000",
"Channel_info_end",
"Channel_info_start",
"Channel : Sr",
"Points : 0",
"Range : 0.000000 - 0.000000",
"Step : 0.010000",
"Channel_info_end",
"Channel_info_start",
"Channel : Pb",
"Points : 0",
"Range : 0.000000 - 0.000000",
"Step : 0.010000",
"Channel_info_end",
"",
"Qualitative Result",
"--------------------------------------------------------------------------------",
"Element :  P , Ba, Ca, Te, Pr, Ru",
"",
"Peak List",
"--------------------------------------------------------------------------------",
"Channel               Line        keV     Net Int.(cps/uA)",
"--------------------------------------------------------------------------------",
"Na                    P Ka         2.00     0.017",
"                      BaLaESC      2.72     0.023",
"                      BaLb1ESC     3.07     0.012",
"                      CaKa         3.69     0.279",
"                      BaLL         3.96     0.098",
"                      TeLb1        3.96     0.042",
"                      BaLa         4.47     3.261",
"                      BaLb1        4.84     2.091",
"                      BaLb2        5.16     0.513",
"                      BaLg1        5.54     0.196",
"                      PrLb1        5.54     0.055",
"                      BaLg2        5.80     0.140",
"                      RuKa        19.24     0.127",
"                      ----        19.53     0.042",
"                      ----        20.04     0.083",
"--------------------------------------------------------------------------------",
"",
"Quantitative Result",
"--------------------------------------------------------------------------------",
"Analyte               Result             Std.Dev. Proc.-Calc. Line Intensity(cps/uA)",
"--------------------------------------------------------------------------------",
"====[No. 1 Layer]====< Layer1               >===============================",
"Layer1                   0.000 ug/cm2    -------- Flux       -------- --------",

File: BaF2 31515.20100626150250.csv
"Sample    : BaF2 31515",
"Operator  : thiago",
"Comment  : cubatao-g-policarbonato",
"Group     : kerr2007ag180cal_lt",
"Date       : 2010-06-26 14:58:37",
"",
"Mesurement Condition",
"------------------------------------------------------------------------------------",
"Instrument : 700HS2   Atmosphere : Vac.   Collimator : 10(mm)   Spin : No",
"------------------------------------------------------------------------------------",
"Analyte               TG kV   uA      FI Acq.(keV)  Anal.(keV)  Time(sec)     DT(%)",
"------------------------------------------------------------------------------------",
"Na                    Rh 50  393-Auto Al  0 - 20    0.8 - 1.2   Live -  179   15",
"",
"<Profile>",
"Channel_info_start",
"Channel : Na",
"Points : 2048",
"Range : 0.000000 - 20.48",
"Step : 0.010000",
"Channel_info_end",
"0",
"0",
"0",
"0",
"0",
"29",
"37",
"37",
"32",
"35",
"34",
"50",
"64",
"45",
"53",
"60",
"45",
"53",
"36",
"48",
"31",
"33",
"36",
"35",
"40",
"53",
"48",
"59",
"108",
"118",
"56",
"25",
"41",
"32",
"28",
"44",
"29",
"47",
"111",
"178",
"81",
"52",
"39",
"60",
"94",
"87",
"62",
"46",
"45",
"65",
"91",
"210",
"1001",
"1468",
"518",
"270",
"653",
"812",
"379",
"167",
"180",
"359",
"1727",
"9552",
"14863",
"5956",
"786",
"744",
"4234",
"9397",
"6512",
"2616",
"1034",
"1969",
"2305",
"1028",
"239",
"249",
"774",
"1392",
"794",
"329",
"559",
"737",
"458",
"282",
"181",
"132",
"133",
"167",
"144",
"171",
"186",
"176",
"129",
"164",
"138",
"122",
"129",
"134",
"129",
"130",
"156",
"144",
"178",
"163",
"156",
"181",
"154",
"163",
"158",
"159",
"183",
"175",
"208",
"230",
"228",
"200",
"180",
"172",
"151",
"158",
"183",
"219",
"195",
"199",
"162",
"179",
"155",
"192",
"159",
"187",
"195",
"239",
"188",
"200",
"193",
"167",
"187",
"145",
"148",
"169",
"171",
"146",
"158",
"129",
"145",
"147",
"160",
"148",
"150",
"140",
"163",
"171",
"130",
"190",
"151",
"164",
"130",
"169",
"138",
"159",
"164",
"150",
"142",
"139",
"155",
"130",
"164",
"136",
"139",
"127",
"151",
"128",
"122",
"147",
"118",
"120",
"123",
"126",
"118",
"128",
"132",
"139",
"116",
"129",
"136",
"148",
"132",
"112",
"135",
"126",
"136",
"109",
"128",
"112",
"121",
"140",
"124",
"127",
"132",
"139",
"120",
"156",
"119",
"129",
"134",
"132",
"91",
"118",
"117",
"102",
"96",
"97",
"92",
"91",
"102",
"119",
"100",
"95",
"85",
"96",
"93",
"111",
"109",
"96",
"97",
"85",
"94",
"107",
"81",
"100",
"77",
"88",
"90",
"104",
"103",
"90",
"83",
"91",
"80",
"70",
"69",
"82",
"81",
"106",
"98",
"86",
"77",
"87",
"86",
"96",
"85",
"88",
"79",
"94",
"90",
"86",
"79",
"103",
"79",
"93",
"104",
"105",
"111",
"133",
"134",
"180",
"201",
"255",
"305",
"408",
"533",
"539",
"588",
"542",
"509",
"455",
"332",
"286",
"216",
"191",
"168",
"143",
"200",
"250",
"334",
"380",
"368",
"225",
"135",
"107",
"88",
"56336",
"Channel_info_start",
"Channel : Mg",
"Points : 0",
"Range : 0.000000 - 0.000000",
"Step : 0.010000",
"Channel_info_end",
"Channel_info_start",
"Channel : Al",
"Points : 0",
"Range : 0.000000 - 0.000000",
"Step : 0.010000",
"Channel_info_end",
"Channel_info_start",
"Channel : Si",
"Points : 0",
"Range : 0.000000 - 0.000000",
"Step : 0.010000",
"Channel_info_end",
"Channel_info_start",
"Channel : P ",
"Points : 0",
"Range : 0.000000 - 0.000000",
"Step : 0.010000",
"Channel_info_end",
"Channel_info_start",
"Channel : S ",
"Points : 0",
"Range : 0.000000 - 0.000000",
"Step : 0.010000",
"Channel_info_end",
"Channel_info_start",
"Channel : Cl",
"Points : 0",
"Range : 0.000000 - 0.000000",
"Step : 0.010000",
"Channel_info_end",
"Channel_info_start",
"Channel : K ",
"Points : 0",
"Range : 0.000000 - 0.000000",
"Step : 0.010000",
"Channel_info_end",
"Channel_info_start",
"Channel : Ca",
"Points : 0",
"Range : 0.000000 - 0.000000",
"Step : 0.010000",
"Channel_info_end",
"Channel_info_start",
"Channel : Ti",
"Points : 0",
"Range : 0.000000 - 0.000000",
"Step : 0.010000",
"Channel_info_end",
"Channel_info_start",
"Channel : V ",
"Points : 0",
"Range : 0.000000 - 0.000000",
"Step : 0.010000",
"Channel_info_end",
"Channel_info_start",
"Channel : Cr",
"Points : 0",
"Range : 0.000000 - 0.000000",
"Step : 0.010000",
"Channel_info_end",
"Channel_info_start",
"Channel : Mn",
"Points : 0",
"Range : 0.000000 - 0.000000",
"Step : 0.010000",
"Channel_info_end",
"Channel_info_start",
"Channel : Fe",
"Points : 0",
"Range : 0.000000 - 0.000000",
"Step : 0.010000",
"Channel_info_end",
"Channel_info_start",
"Channel : Cu",
"Points : 0",
"Range : 0.000000 - 0.000000",
"Step : 0.010000",
"Channel_info_end",
"Channel_info_start",
"Channel : Zn",
"Points : 0",
"Range : 0.000000 - 0.000000",
"Step : 0.010000",
"Channel_info_end",
"Channel_info_start",
"Channel : Sr",
"Points : 0",
"Range : 0.000000 - 0.000000",
"Step : 0.010000",
"Channel_info_end",
"Channel_info_start",
"Channel : Pb",
"Points : 0",
"Range : 0.000000 - 0.000000",
"Step : 0.010000",
"Channel_info_end",
"",
"Qualitative Result",
"--------------------------------------------------------------------------------",
"Element :  Na, P , Ba, Ca, Te, Pr, Rh",
"",
"Peak List",
"--------------------------------------------------------------------------------",
"Channel               Line        keV     Net Int.(cps/uA)",
"--------------------------------------------------------------------------------",
"Na                    NaKa         1.00     0.005",
"                      P Ka         2.01     0.021",
"                      BaLaESC      2.72     0.024",
"                      BaLb1ESC     3.11     0.012",
"                      CaKa         3.69     0.284",
"                      BaLL         3.97     0.091",
"                      TeLb1        3.97     0.050",
"                      BaLa         4.48     3.037",
"                      BaLb1        4.84     1.914",
"                      BaLb2        5.16     0.465",
"                      BaLg1        5.52     0.182",
"                      PrLb1        5.52     0.066",
"                      BaLg2        5.78     0.129",
"                      RhKaC       19.21     0.127",
"                      ----        19.49     0.047",
"                      RhKa        20.08     0.090",
"--------------------------------------------------------------------------------",
"",
"Quantitative Result",
"--------------------------------------------------------------------------------",
"Analyte               Result             Std.Dev. Proc.-Calc. Line Intensity(cps/uA)",
"--------------------------------------------------------------------------------",
"====[No. 1 Layer]====< Layer1               >===============================",
"Layer1                   4.597 ug/cm2    -------- Flux       -------- --------",
"Na                       4.597 ug/cm2    -------- ********** -------- --------",