Folder: mestrado_ifusp/inputs/edxCalibration/edx_raw/2010/junho (part 17)

File: Ti 15755.20100525210819.csv
"Sample    : Ti 15755",
"Operator  : luisf",
"Comment  : cubatao-g-policarbonato",
"Group     : kerr2007ag180cal_lt",
"Date       : 2010-05-25 21:04:06",
"",
"Mesurement Condition",
"------------------------------------------------------------------------------------",
"Instrument : 700HS2   Atmosphere : Vac.   Collimator : 10(mm)   Spin : No",
"------------------------------------------------------------------------------------",
"Analyte               TG kV   uA      FI Acq.(keV)  Anal.(keV)  Time(sec)     DT(%)",
"------------------------------------------------------------------------------------",
"Na                    Rh 50  312-Auto Al  0 - 20    0.8 - 1.2   Live -  179   15",
"",
"<Profile>",
"Channel_info_start",
"Channel : Na",
"Points : 2048",
"Range : 0.000000 - 20.48",
"Step : 0.010000",
"Channel_info_end",
"0",
"0",
"0",
"0",
"1",
"14",
"21",
"15",
"18",
"16",
"20",
"30",
"16",
"13",
"23",
"23",
"16",
"21",
"31",
"19",
"18",
"18",
"21",
"20",
"27",
"33",
"25",
"23",
"55",
"67",
"36",
"28",
"23",
"28",
"27",
"25",
"31",
"37",
"73",
"266",
"255",
"61",
"33",
"34",
"37",
"52",
"55",
"45",
"30",
"33",
"62",
"153",
"544",
"724",
"272",
"192",
"150",
"233",
"190",
"165",
"178",
"254",
"803",
"9398",
"34185",
"29308",
"5748",
"470",
"311",
"1391",
"4082",
"3896",
"975",
"117",
"59",
"58",
"45",
"56",
"62",
"60",
"55",
"76",
"69",
"62",
"71",
"85",
"70",
"81",
"112",
"107",
"111",
"133",
"115",
"122",
"102",
"113",
"115",
"110",
"96",
"81",
"99",
"112",
"89",
"106",
"96",
"112",
"110",
"98",
"113",
"85",
"103",
"101",
"100",
"113",
"136",
"141",
"168",
"119",
"105",
"113",
"157",
"147",
"141",
"182",
"160",
"125",
"119",
"123",
"144",
"155",
"145",
"111",
"108",
"106",
"110",
"148",
"108",
"124",
"111",
"135",
"121",
"82",
"110",
"118",
"107",
"112",
"104",
"107",
"115",
"96",
"102",
"103",
"105",
"108",
"112",
"130",
"90",
"101",
"111",
"124",
"103",
"104",
"88",
"105",
"99",
"101",
"91",
"132",
"106",
"111",
"115",
"112",
"80",
"92",
"90",
"106",
"94",
"75",
"94",
"115",
"103",
"104",
"92",
"98",
"102",
"95",
"93",
"96",
"94",
"104",
"88",
"83",
"88",
"90",
"87",
"68",
"85",
"93",
"72",
"89",
"79",
"77",
"91",
"73",
"85",
"80",
"71",
"69",
"75",
"84",
"65",
"75",
"75",
"88",
"80",
"67",
"81",
"89",
"75",
"83",
"77",
"79",
"79",
"75",
"68",
"73",
"79",
"60",
"62",
"75",
"52",
"66",
"73",
"57",
"57",
"67",
"60",
"52",
"52",
"71",
"61",
"62",
"59",
"79",
"68",
"47",
"65",
"54",
"76",
"68",
"67",
"69",
"68",
"56",
"58",
"77",
"87",
"76",
"73",
"80",
"75",
"76",
"81",
"92",
"90",
"126",
"112",
"105",
"148",
"203",
"278",
"354",
"403",
"411",
"480",
"445",
"434",
"306",
"289",
"175",
"152",
"115",
"117",
"102",
"123",
"163",
"202",
"185",
"181",
"111",
"73",
"60",
"52",
"31575",
"Channel_info_start",
"Channel : Mg",
"Points : 0",
"Range : 0.000000 - 0.000000",
"Step : 0.010000",
"Channel_info_end",
"Channel_info_start",
"Channel : Al",
"Points : 0",
"Range : 0.000000 - 0.000000",
"Step : 0.010000",
"Channel_info_end",
"Channel_info_start",
"Channel : Si",
"Points : 0",
"Range : 0.000000 - 0.000000",
"Step : 0.010000",
"Channel_info_end",
"Channel_info_start",
"Channel : P ",
"Points : 0",
"Range : 0.000000 - 0.000000",
"Step : 0.010000",
"Channel_info_end",
"Channel_info_start",
"Channel : S ",
"Points : 0",
"Range : 0.000000 - 0.000000",
"Step : 0.010000",
"Channel_info_end",
"Channel_info_start",
"Channel : Cl",
"Points : 0",
"Range : 0.000000 - 0.000000",
"Step : 0.010000",
"Channel_info_end",
"Channel_info_start",
"Channel : K ",
"Points : 0",
"Range : 0.000000 - 0.000000",
"Step : 0.010000",
"Channel_info_end",
"Channel_info_start",
"Channel : Ca",
"Points : 0",
"Range : 0.000000 - 0.000000",
"Step : 0.010000",
"Channel_info_end",
"Channel_info_start",
"Channel : Ti",
"Points : 0",
"Range : 0.000000 - 0.000000",
"Step : 0.010000",
"Channel_info_end",
"Channel_info_start",
"Channel : V ",
"Points : 0",
"Range : 0.000000 - 0.000000",
"Step : 0.010000",
"Channel_info_end",
"Channel_info_start",
"Channel : Cr",
"Points : 0",
"Range : 0.000000 - 0.000000",
"Step : 0.010000",
"Channel_info_end",
"Channel_info_start",
"Channel : Mn",
"Points : 0",
"Range : 0.000000 - 0.000000",
"Step : 0.010000",
"Channel_info_end",
"Channel_info_start",
"Channel : Fe",
"Points : 0",
"Range : 0.000000 - 0.000000",
"Step : 0.010000",
"Channel_info_end",
"Channel_info_start",
"Channel : Cu",
"Points : 0",
"Range : 0.000000 - 0.000000",
"Step : 0.010000",
"Channel_info_end",
"Channel_info_start",
"Channel : Zn",
"Points : 0",
"Range : 0.000000 - 0.000000",
"Step : 0.010000",
"Channel_info_end",
"Channel_info_start",
"Channel : Sr",
"Points : 0",
"Range : 0.000000 - 0.000000",
"Step : 0.010000",
"Channel_info_end",
"Channel_info_start",
"Channel : Pb",
"Points : 0",
"Range : 0.000000 - 0.000000",
"Step : 0.010000",
"Channel_info_end",
"",
"Qualitative Result",
"--------------------------------------------------------------------------------",
"Element :  P , Ti, Rh",
"",
"Peak List",
"--------------------------------------------------------------------------------",
"Channel               Line        keV     Net Int.(cps/uA)",
"--------------------------------------------------------------------------------",
"Na                    P Ka         2.01     0.014",
"                      TiKaESC      2.76     0.069",
"                      ----         3.68     0.178",
"                      TiKa         4.51     9.606",
"                      TiKb         4.92     1.214",
"                      RhKaC       19.20     0.140",
"                      ----        19.45     0.062",
"                      RhKa        20.07     0.065",
"--------------------------------------------------------------------------------",
"",
"Quantitative Result",
"--------------------------------------------------------------------------------",
"Analyte               Result             Std.Dev. Proc.-Calc. Line Intensity(cps/uA)",
"--------------------------------------------------------------------------------",
"====[No. 1 Layer]====< Layer1               >===============================",
"Layer1                   0.000 ug/cm2    -------- Flux       -------- --------",

File: Ti 31498.20100525211218.csv
"Sample    : Ti 31498",
"Operator  : luisf",
"Comment  : cubatao-g-policarbonato",
"Group     : kerr2007ag180cal_lt",
"Date       : 2010-05-25 21:08:18",
"",
"Mesurement Condition",
"------------------------------------------------------------------------------------",
"Instrument : 700HS2   Atmosphere : Vac.   Collimator : 10(mm)   Spin : No",
"------------------------------------------------------------------------------------",
"Analyte               TG kV   uA      FI Acq.(keV)  Anal.(keV)  Time(sec)     DT(%)",
"------------------------------------------------------------------------------------",
"Na                    Rh 50  268-Auto Al  0 - 20    0.8 - 1.2   Live -  179   14",
"",
"<Profile>",
"Channel_info_start",
"Channel : Na",
"Points : 2048",
"Range : 0.000000 - 20.48",
"Step : 0.010000",
"Channel_info_end",
"0",
"0",
"0",
"0",
"1",
"15",
"17",
"26",
"16",
"15",
"16",
"18",
"16",
"15",
"11",
"11",
"15",
"9",
"16",
"16",
"22",
"25",
"28",
"21",
"24",
"36",
"17",
"21",
"66",
"98",
"35",
"29",
"16",
"16",
"26",
"27",
"34",
"25",
"63",
"229",
"217",
"68",
"37",
"30",
"47",
"56",
"38",
"44",
"38",
"47",
"54",
"177",
"791",
"1019",
"299",
"139",
"163",
"260",
"198",
"174",
"161",
"240",
"768",
"7959",
"29391",
"25789",
"5136",
"414",
"246",
"1188",
"3597",
"3364",
"851",
"98",
"49",
"46",
"53",
"49",
"51",
"42",
"39",
"56",
"52",
"55",
"62",
"76",
"90",
"73",
"79",
"85",
"81",
"109",
"115",
"76",
"103",
"91",
"104",
"86",
"81",
"91",
"88",
"99",
"67",
"87",
"92",
"73",
"82",
"99",
"83",
"103",
"86",
"78",
"92",
"93",
"134",
"127",
"116",
"101",
"114",
"101",
"117",
"89",
"126",
"144",
"129",
"103",
"107",
"103",
"137",
"138",
"120",
"101",
"81",
"92",
"102",
"106",
"104",
"101",
"100",
"94",
"91",
"96",
"93",
"87",
"91",
"85",
"95",
"85",
"92",
"93",
"101",
"77",
"93",
"105",
"80",
"101",
"88",
"94",
"88",
"78",
"82",
"82",
"80",
"89",
"75",
"91",
"72",
"81",
"90",
"77",
"73",
"91",
"83",
"108",
"74",
"83",
"80",
"77",
"76",
"75",
"72",
"73",
"76",
"67",
"76",
"98",
"65",
"99",
"86",
"68",
"78",
"79",
"99",
"92",
"52",
"63",
"72",
"72",
"67",
"67",
"76",
"65",
"61",
"65",
"70",
"73",
"69",
"88",
"68",
"68",
"68",
"70",
"69",
"60",
"67",
"60",
"70",
"55",
"66",
"60",
"59",
"75",
"63",
"73",
"53",
"62",
"60",
"65",
"56",
"52",
"61",
"57",
"52",
"59",
"70",
"72",
"51",
"49",
"52",
"46",
"44",
"49",
"63",
"64",
"67",
"53",
"50",
"66",
"55",
"52",
"55",
"42",
"46",
"49",
"49",
"47",
"57",
"56",
"60",
"60",
"77",
"73",
"60",
"69",
"76",
"79",
"91",
"124",
"127",
"152",
"245",
"267",
"326",
"390",
"392",
"416",
"350",
"280",
"198",
"190",
"118",
"95",
"83",
"90",
"103",
"113",
"163",
"193",
"153",
"92",
"65",
"40",
"60",
"26419",
"Channel_info_start",
"Channel : Mg",
"Points : 0",
"Range : 0.000000 - 0.000000",
"Step : 0.010000",
"Channel_info_end",
"Channel_info_start",
"Channel : Al",
"Points : 0",
"Range : 0.000000 - 0.000000",
"Step : 0.010000",
"Channel_info_end",
"Channel_info_start",
"Channel : Si",
"Points : 0",
"Range : 0.000000 - 0.000000",
"Step : 0.010000",
"Channel_info_end",
"Channel_info_start",
"Channel : P ",
"Points : 0",
"Range : 0.000000 - 0.000000",
"Step : 0.010000",
"Channel_info_end",
"Channel_info_start",
"Channel : S ",
"Points : 0",
"Range : 0.000000 - 0.000000",
"Step : 0.010000",
"Channel_info_end",
"Channel_info_start",
"Channel : Cl",
"Points : 0",
"Range : 0.000000 - 0.000000",
"Step : 0.010000",
"Channel_info_end",
"Channel_info_start",
"Channel : K ",
"Points : 0",
"Range : 0.000000 - 0.000000",
"Step : 0.010000",
"Channel_info_end",
"Channel_info_start",
"Channel : Ca",
"Points : 0",
"Range : 0.000000 - 0.000000",
"Step : 0.010000",
"Channel_info_end",
"Channel_info_start",
"Channel : Ti",
"Points : 0",
"Range : 0.000000 - 0.000000",
"Step : 0.010000",
"Channel_info_end",
"Channel_info_start",
"Channel : V ",
"Points : 0",
"Range : 0.000000 - 0.000000",
"Step : 0.010000",
"Channel_info_end",
"Channel_info_start",
"Channel : Cr",
"Points : 0",
"Range : 0.000000 - 0.000000",
"Step : 0.010000",
"Channel_info_end",
"Channel_info_start",
"Channel : Mn",
"Points : 0",
"Range : 0.000000 - 0.000000",
"Step : 0.010000",
"Channel_info_end",
"Channel_info_start",
"Channel : Fe",
"Points : 0",
"Range : 0.000000 - 0.000000",
"Step : 0.010000",
"Channel_info_end",
"Channel_info_start",
"Channel : Cu",
"Points : 0",
"Range : 0.000000 - 0.000000",
"Step : 0.010000",
"Channel_info_end",
"Channel_info_start",
"Channel : Zn",
"Points : 0",
"Range : 0.000000 - 0.000000",
"Step : 0.010000",
"Channel_info_end",
"Channel_info_start",
"Channel : Sr",
"Points : 0",
"Range : 0.000000 - 0.000000",
"Step : 0.010000",
"Channel_info_end",
"Channel_info_start",
"Channel : Pb",
"Points : 0",
"Range : 0.000000 - 0.000000",
"Step : 0.010000",
"Channel_info_end",
"",
"Qualitative Result",
"--------------------------------------------------------------------------------",
"Element :  P , Ti, Ca, Ru",
"",
"Peak List",
"--------------------------------------------------------------------------------",
"Channel               Line        keV     Net Int.(cps/uA)",
"--------------------------------------------------------------------------------",
"Na                    P Ka         2.00     0.022",
"                      TiKaESC      2.76     0.073",
"                      CaKa         3.69     0.298",
"                      CaKb         3.99     0.037",
"                      TiKa         4.51     9.787",
"                      TiKb         4.93     1.253",
"                      RuKa        19.17     0.136",
"                      ----        19.40     0.084",
"                      ----        20.00     0.048",
"--------------------------------------------------------------------------------",
"",
"Quantitative Result",
"--------------------------------------------------------------------------------",
"Analyte               Result             Std.Dev. Proc.-Calc. Line Intensity(cps/uA)",
"--------------------------------------------------------------------------------",
"====[No. 1 Layer]====< Layer1               >===============================",
"Layer1                   0.000 ug/cm2    -------- Flux       -------- --------",

File: WO3 15769.20100526012157.csv
"Sample    : WO3 15769",
"Operator  : luisf",
"Comment  : cubatao-g-policarbonato",
"Group     : kerr2007ag180cal_lt",
"Date       : 2010-05-26 01:16:02",
"",
"Mesurement Condition",
"------------------------------------------------------------------------------------",
"Instrument : 700HS2   Atmosphere : Vac.   Collimator : 10(mm)   Spin : No",
"------------------------------------------------------------------------------------",
"Analyte               TG kV   uA      FI Acq.(keV)  Anal.(keV)  Time(sec)     DT(%)",
"------------------------------------------------------------------------------------",
"Na                    Rh 50  210-Auto Al  0 - 20    0.8 - 1.2   Live -  179   14",
"",
"<Profile>",
"Channel_info_start",
"Channel : Na",
"Points : 2048",
"Range : 0.000000 - 20.48",
"Step : 0.010000",
"Channel_info_end",
"0",
"0",
"0",
"0",
"0",
"26",
"25",
"17",
"19",
"19",
"18",
"22",
"21",
"23",
"13",
"14",
"24",
"29",
"26",
"104",
"240",
"99",
"71",
"128",
"377",
"2256",
"3267",
"1237",
"257",
"283",
"142",
"57",
"51",
"105",
"87",
"29",
"18",
"16",
"22",
"31",
"26",
"24",
"10",
"15",
"17",
"16",
"19",
"17",
"14",
"18",
"26",
"82",
"361",
"433",
"152",
"54",
"47",
"92",
"60",
"29",
"27",
"34",
"34",
"40",
"43",
"45",
"62",
"53",
"60",
"45",
"49",
"57",
"49",
"54",
"40",
"54",
"48",
"52",
"50",
"68",
"74",
"69",
"64",
"77",
"66",
"82",
"73",
"73",
"96",
"108",
"113",
"101",
"97",
"128",
"105",
"128",
"113",
"127",
"132",
"102",
"115",
"118",
"123",
"138",
"341",
"710",
"594",
"331",
"130",
"129",
"119",
"134",
"140",
"147",
"148",
"174",
"219",
"743",
"3337",
"9333",
"11941",
"7312",
"1856",
"468",
"351",
"310",
"200",
"162",
"120",
"104",
"113",
"126",
"119",
"183",
"301",
"846",
"2252",
"4589",
"6363",
"5444",
"2994",
"2329",
"2299",
"1916",
"843",
"340",
"234",
"179",
"128",
"109",
"97",
"106",
"88",
"93",
"95",
"140",
"148",
"156",
"167",
"391",
"830",
"1167",
"946",
"510",
"352",
"408",
"461",
"398",
"277",
"166",
"96",
"146",
"152",
"118",
"80",
"89",
"81",
"91",
"79",
"80",
"79",
"68",
"55",
"67",
"76",
"77",
"75",
"79",
"69",
"92",
"64",
"68",
"81",
"65",
"78",
"53",
"66",
"78",
"76",
"84",
"68",
"60",
"69",
"62",
"71",
"50",
"56",
"55",
"56",
"60",
"57",
"58",
"65",
"68",
"62",
"64",
"71",
"63",
"68",
"71",
"67",
"57",
"57",
"67",
"62",
"68",
"54",
"50",
"56",
"60",
"62",
"52",
"48",
"57",
"49",
"45",
"53",
"54",
"48",
"55",
"61",
"56",
"66",
"48",
"45",
"45",
"50",
"65",
"66",
"42",
"49",
"44",
"38",
"55",
"40",
"75",
"70",
"67",
"69",
"70",
"55",
"61",
"78",
"55",
"68",
"69",
"77",
"96",
"88",
"142",
"162",
"237",
"305",
"307",
"304",
"322",
"291",
"247",
"208",
"165",
"125",
"90",
"76",
"77",
"121",
"167",
"216",
"277",
"209",
"128",
"81",
"55",
"54",
"23739",
"Channel_info_start",
"Channel : Mg",
"Points : 0",
"Range : 0.000000 - 0.000000",
"Step : 0.010000",
"Channel_info_end",
"Channel_info_start",
"Channel : Al",
"Points : 0",
"Range : 0.000000 - 0.000000",
"Step : 0.010000",
"Channel_info_end",
"Channel_info_start",
"Channel : Si",
"Points : 0",
"Range : 0.000000 - 0.000000",
"Step : 0.010000",
"Channel_info_end",
"Channel_info_start",
"Channel : P ",
"Points : 0",
"Range : 0.000000 - 0.000000",
"Step : 0.010000",
"Channel_info_end",
"Channel_info_start",
"Channel : S ",
"Points : 0",
"Range : 0.000000 - 0.000000",
"Step : 0.010000",
"Channel_info_end",
"Channel_info_start",
"Channel : Cl",
"Points : 0",
"Range : 0.000000 - 0.000000",
"Step : 0.010000",
"Channel_info_end",
"Channel_info_start",
"Channel : K ",
"Points : 0",
"Range : 0.000000 - 0.000000",
"Step : 0.010000",
"Channel_info_end",
"Channel_info_start",
"Channel : Ca",
"Points : 0",
"Range : 0.000000 - 0.000000",
"Step : 0.010000",
"Channel_info_end",
"Channel_info_start",
"Channel : Ti",
"Points : 0",
"Range : 0.000000 - 0.000000",
"Step : 0.010000",
"Channel_info_end",
"Channel_info_start",
"Channel : V ",
"Points : 0",
"Range : 0.000000 - 0.000000",
"Step : 0.010000",
"Channel_info_end",
"Channel_info_start",
"Channel : Cr",
"Points : 0",
"Range : 0.000000 - 0.000000",
"Step : 0.010000",
"Channel_info_end",
"Channel_info_start",
"Channel : Mn",
"Points : 0",
"Range : 0.000000 - 0.000000",
"Step : 0.010000",
"Channel_info_end",
"Channel_info_start",
"Channel : Fe",
"Points : 0",
"Range : 0.000000 - 0.000000",
"Step : 0.010000",
"Channel_info_end",
"Channel_info_start",
"Channel : Cu",
"Points : 0",
"Range : 0.000000 - 0.000000",
"Step : 0.010000",
"Channel_info_end",
"Channel_info_start",
"Channel : Zn",
"Points : 0",
"Range : 0.000000 - 0.000000",
"Step : 0.010000",
"Channel_info_end",
"Channel_info_start",
"Channel : Sr",
"Points : 0",
"Range : 0.000000 - 0.000000",
"Step : 0.010000",
"Channel_info_end",
"Channel_info_start",
"Channel : Pb",
"Points : 0",
"Range : 0.000000 - 0.000000",
"Step : 0.010000",
"Channel_info_end",
"",
"Qualitative Result",
"--------------------------------------------------------------------------------",
"Element :  Se, W , P , S , Ca, Yb, Ru",
"",
"Peak List",
"--------------------------------------------------------------------------------",
"Channel               Line        keV     Net Int.(cps/uA)",
"--------------------------------------------------------------------------------",
"Na                    SeLa         1.39     0.051",
"                      W Ma         1.80     1.067",
"                      P Ka         2.03     0.072",
"                      S Ka         2.34     0.028",
"                      CaKa         3.69     0.171",
"                      CaKb         4.00     0.022",
"                      W LL         7.38     0.166",
"                      YbLa         7.38     0.113",
"                      W La         8.40     4.592",
"                      YbLb1        8.40     0.955",
"                      YbLb2        8.75     0.065",
"                      W Lb1        9.67     2.960",
"                      W Lb2        9.96     0.996",
"                      W Lg1       11.28     0.522",
"                      W Lg2       11.64     0.177",
"                      RuKa        19.16     0.131",
"                      ----        19.40     0.082",
"                      ----        19.92     0.051",
"--------------------------------------------------------------------------------",
"",
"Quantitative Result",
"--------------------------------------------------------------------------------",
"Analyte               Result             Std.Dev. Proc.-Calc. Line Intensity(cps/uA)",
"--------------------------------------------------------------------------------",
"====[No. 1 Layer]====< Layer1               >===============================",
"Layer1                   0.000 ug/cm2    -------- Flux       -------- --------",