Folder: mestrado_ifusp/inputs/edxCalibration/edx_raw/2010/junho (part 13)

File: Pt 15770.20100526012601.csv
"Sample    : Pt 15770",
"Operator  : luisf",
"Comment  : cubatao-g-policarbonato",
"Group     : kerr2007ag180cal_lt",
"Date       : 2010-05-26 01:21:55",
"",
"Mesurement Condition",
"------------------------------------------------------------------------------------",
"Instrument : 700HS2   Atmosphere : Vac.   Collimator : 10(mm)   Spin : No",
"------------------------------------------------------------------------------------",
"Analyte               TG kV   uA      FI Acq.(keV)  Anal.(keV)  Time(sec)     DT(%)",
"------------------------------------------------------------------------------------",
"Na                    Rh 50  210-Auto Al  0 - 20    0.8 - 1.2   Live -  180   15",
"",
"<Profile>",
"Channel_info_start",
"Channel : Na",
"Points : 2048",
"Range : 0.000000 - 20.48",
"Step : 0.010000",
"Channel_info_end",
"0",
"0",
"0",
"0",
"0",
"125",
"61",
"41",
"32",
"33",
"30",
"32",
"32",
"24",
"26",
"29",
"30",
"29",
"17",
"45",
"33",
"27",
"147",
"328",
"216",
"179",
"182",
"309",
"681",
"2897",
"3816",
"2052",
"420",
"343",
"269",
"76",
"36",
"68",
"144",
"164",
"73",
"30",
"27",
"26",
"24",
"22",
"21",
"24",
"28",
"13",
"29",
"91",
"353",
"451",
"159",
"39",
"56",
"70",
"59",
"39",
"24",
"25",
"22",
"32",
"36",
"39",
"45",
"45",
"38",
"40",
"27",
"39",
"39",
"37",
"38",
"38",
"35",
"86",
"78",
"93",
"90",
"76",
"76",
"75",
"71",
"66",
"68",
"73",
"71",
"95",
"113",
"119",
"150",
"142",
"138",
"171",
"125",
"146",
"134",
"137",
"120",
"119",
"75",
"86",
"81",
"101",
"109",
"86",
"101",
"89",
"109",
"115",
"93",
"120",
"159",
"205",
"253",
"509",
"771",
"628",
"266",
"164",
"161",
"206",
"184",
"174",
"166",
"182",
"191",
"169",
"171",
"300",
"1219",
"4373",
"9962",
"12074",
"6935",
"2080",
"438",
"178",
"155",
"199",
"255",
"273",
"185",
"133",
"95",
"120",
"102",
"107",
"112",
"118",
"170",
"371",
"644",
"1065",
"2044",
"4319",
"5969",
"5706",
"4193",
"3102",
"1640",
"699",
"390",
"329",
"294",
"207",
"169",
"114",
"96",
"123",
"88",
"91",
"87",
"95",
"80",
"103",
"118",
"117",
"120",
"134",
"237",
"608",
"963",
"1138",
"756",
"399",
"294",
"356",
"382",
"340",
"228",
"118",
"81",
"87",
"98",
"103",
"103",
"88",
"81",
"68",
"68",
"71",
"54",
"66",
"73",
"76",
"83",
"62",
"73",
"57",
"56",
"78",
"72",
"68",
"83",
"47",
"50",
"64",
"62",
"60",
"48",
"61",
"93",
"71",
"59",
"60",
"58",
"70",
"46",
"51",
"72",
"54",
"62",
"60",
"59",
"58",
"54",
"62",
"66",
"53",
"48",
"46",
"64",
"59",
"52",
"53",
"49",
"49",
"44",
"68",
"50",
"60",
"65",
"56",
"46",
"62",
"47",
"68",
"66",
"62",
"70",
"74",
"82",
"80",
"94",
"101",
"119",
"120",
"188",
"262",
"258",
"306",
"300",
"344",
"258",
"227",
"204",
"142",
"103",
"98",
"83",
"96",
"144",
"203",
"252",
"310",
"237",
"166",
"107",
"69",
"57",
"25229",
"Channel_info_start",
"Channel : Mg",
"Points : 0",
"Range : 0.000000 - 0.000000",
"Step : 0.010000",
"Channel_info_end",
"Channel_info_start",
"Channel : Al",
"Points : 0",
"Range : 0.000000 - 0.000000",
"Step : 0.010000",
"Channel_info_end",
"Channel_info_start",
"Channel : Si",
"Points : 0",
"Range : 0.000000 - 0.000000",
"Step : 0.010000",
"Channel_info_end",
"Channel_info_start",
"Channel : P ",
"Points : 0",
"Range : 0.000000 - 0.000000",
"Step : 0.010000",
"Channel_info_end",
"Channel_info_start",
"Channel : S ",
"Points : 0",
"Range : 0.000000 - 0.000000",
"Step : 0.010000",
"Channel_info_end",
"Channel_info_start",
"Channel : Cl",
"Points : 0",
"Range : 0.000000 - 0.000000",
"Step : 0.010000",
"Channel_info_end",
"Channel_info_start",
"Channel : K ",
"Points : 0",
"Range : 0.000000 - 0.000000",
"Step : 0.010000",
"Channel_info_end",
"Channel_info_start",
"Channel : Ca",
"Points : 0",
"Range : 0.000000 - 0.000000",
"Step : 0.010000",
"Channel_info_end",
"Channel_info_start",
"Channel : Ti",
"Points : 0",
"Range : 0.000000 - 0.000000",
"Step : 0.010000",
"Channel_info_end",
"Channel_info_start",
"Channel : V ",
"Points : 0",
"Range : 0.000000 - 0.000000",
"Step : 0.010000",
"Channel_info_end",
"Channel_info_start",
"Channel : Cr",
"Points : 0",
"Range : 0.000000 - 0.000000",
"Step : 0.010000",
"Channel_info_end",
"Channel_info_start",
"Channel : Mn",
"Points : 0",
"Range : 0.000000 - 0.000000",
"Step : 0.010000",
"Channel_info_end",
"Channel_info_start",
"Channel : Fe",
"Points : 0",
"Range : 0.000000 - 0.000000",
"Step : 0.010000",
"Channel_info_end",
"Channel_info_start",
"Channel : Cu",
"Points : 0",
"Range : 0.000000 - 0.000000",
"Step : 0.010000",
"Channel_info_end",
"Channel_info_start",
"Channel : Zn",
"Points : 0",
"Range : 0.000000 - 0.000000",
"Step : 0.010000",
"Channel_info_end",
"Channel_info_start",
"Channel : Sr",
"Points : 0",
"Range : 0.000000 - 0.000000",
"Step : 0.010000",
"Channel_info_end",
"Channel_info_start",
"Channel : Pb",
"Points : 0",
"Range : 0.000000 - 0.000000",
"Step : 0.010000",
"Channel_info_end",
"",
"Qualitative Result",
"--------------------------------------------------------------------------------",
"Element :  Si, Pt, S , Ca, Rh",
"",
"Peak List",
"--------------------------------------------------------------------------------",
"Channel               Line        keV     Net Int.(cps/uA)",
"--------------------------------------------------------------------------------",
"Na                    ----         1.61     0.076",
"                      SiKa         1.77     0.026",
"                      PtMa         2.08     1.250",
"                      S Ka         2.36     0.098",
"                      ----         2.70     0.045",
"                      CaKa         3.68     0.178",
"                      CaKb         4.02     0.024",
"                      ----         6.52     0.031",
"                      PtLL         8.26     0.293",
"                      PtLa         9.44     5.792",
"                      ----         9.99     0.068",
"                      PtLb1       11.06     2.883",
"                      ----        11.28     1.281",
"                      PtLg1       12.96     0.524",
"                      PtLg3       13.28     0.161",
"                      RhKaC       19.26     0.144",
"                      RhKa        20.08     0.141",
"--------------------------------------------------------------------------------",
"",
"Quantitative Result",
"--------------------------------------------------------------------------------",
"Analyte               Result             Std.Dev. Proc.-Calc. Line Intensity(cps/uA)",
"--------------------------------------------------------------------------------",
"====[No. 1 Layer]====< Layer1               >===============================",
"Layer1                   0.000 ug/cm2    -------- Flux       -------- --------",

File: Pt 15770.20100611042346.csv
"Sample    : Pt 15770",
"Operator  : Luís",
"Comment  : cubatao-g-policarbonato",
"Group     : kerr2007ag180cal_lt",
"Date       : 2010-06-11 04:19:41",
"",
"Mesurement Condition",
"------------------------------------------------------------------------------------",
"Instrument : 700HS2   Atmosphere : Vac.   Collimator : 10(mm)   Spin : No",
"------------------------------------------------------------------------------------",
"Analyte               TG kV   uA      FI Acq.(keV)  Anal.(keV)  Time(sec)     DT(%)",
"------------------------------------------------------------------------------------",
"Na                    Rh 50  210-Auto Al  0 - 20    0.8 - 1.2   Live -  180   15",
"",
"<Profile>",
"Channel_info_start",
"Channel : Na",
"Points : 2048",
"Range : 0.000000 - 20.48",
"Step : 0.010000",
"Channel_info_end",
"0",
"0",
"0",
"0",
"2",
"83",
"61",
"48",
"28",
"39",
"27",
"24",
"25",
"32",
"20",
"24",
"25",
"22",
"27",
"29",
"25",
"39",
"151",
"299",
"181",
"176",
"201",
"293",
"646",
"2997",
"3749",
"2001",
"419",
"379",
"259",
"78",
"45",
"72",
"128",
"159",
"81",
"26",
"22",
"25",
"29",
"17",
"17",
"33",
"17",
"25",
"27",
"99",
"335",
"492",
"161",
"60",
"54",
"78",
"66",
"41",
"20",
"30",
"21",
"28",
"39",
"27",
"41",
"39",
"21",
"37",
"35",
"41",
"32",
"41",
"45",
"49",
"48",
"65",
"70",
"78",
"77",
"101",
"71",
"90",
"63",
"73",
"58",
"79",
"73",
"89",
"121",
"159",
"150",
"139",
"177",
"143",
"152",
"167",
"108",
"109",
"109",
"107",
"90",
"99",
"76",
"94",
"83",
"98",
"99",
"90",
"106",
"95",
"94",
"126",
"137",
"174",
"267",
"531",
"790",
"574",
"264",
"173",
"156",
"198",
"183",
"155",
"156",
"192",
"153",
"190",
"173",
"346",
"1186",
"4615",
"9900",
"11841",
"6669",
"1943",
"363",
"178",
"175",
"213",
"266",
"255",
"183",
"131",
"123",
"100",
"121",
"104",
"125",
"158",
"183",
"360",
"680",
"1110",
"2079",
"4529",
"6064",
"5622",
"4330",
"2889",
"1590",
"656",
"344",
"308",
"252",
"194",
"152",
"128",
"88",
"102",
"99",
"73",
"101",
"82",
"106",
"97",
"118",
"140",
"112",
"143",
"214",
"645",
"1032",
"1127",
"732",
"453",
"294",
"383",
"402",
"374",
"214",
"119",
"85",
"76",
"81",
"121",
"103",
"99",
"75",
"73",
"66",
"77",
"75",
"88",
"71",
"66",
"67",
"60",
"84",
"69",
"78",
"78",
"66",
"56",
"71",
"74",
"51",
"69",
"57",
"63",
"66",
"65",
"52",
"61",
"64",
"58",
"74",
"57",
"61",
"66",
"62",
"57",
"44",
"57",
"63",
"49",
"66",
"48",
"60",
"49",
"59",
"66",
"58",
"51",
"62",
"52",
"52",
"53",
"48",
"56",
"53",
"54",
"44",
"60",
"48",
"61",
"49",
"53",
"75",
"54",
"41",
"69",
"70",
"63",
"69",
"103",
"143",
"141",
"157",
"266",
"283",
"321",
"296",
"322",
"283",
"259",
"186",
"123",
"94",
"88",
"84",
"99",
"140",
"204",
"246",
"270",
"231",
"138",
"111",
"69",
"66",
"25098",
"Channel_info_start",
"Channel : Mg",
"Points : 0",
"Range : 0.000000 - 0.000000",
"Step : 0.010000",
"Channel_info_end",
"Channel_info_start",
"Channel : Al",
"Points : 0",
"Range : 0.000000 - 0.000000",
"Step : 0.010000",
"Channel_info_end",
"Channel_info_start",
"Channel : Si",
"Points : 0",
"Range : 0.000000 - 0.000000",
"Step : 0.010000",
"Channel_info_end",
"Channel_info_start",
"Channel : P ",
"Points : 0",
"Range : 0.000000 - 0.000000",
"Step : 0.010000",
"Channel_info_end",
"Channel_info_start",
"Channel : S ",
"Points : 0",
"Range : 0.000000 - 0.000000",
"Step : 0.010000",
"Channel_info_end",
"Channel_info_start",
"Channel : Cl",
"Points : 0",
"Range : 0.000000 - 0.000000",
"Step : 0.010000",
"Channel_info_end",
"Channel_info_start",
"Channel : K ",
"Points : 0",
"Range : 0.000000 - 0.000000",
"Step : 0.010000",
"Channel_info_end",
"Channel_info_start",
"Channel : Ca",
"Points : 0",
"Range : 0.000000 - 0.000000",
"Step : 0.010000",
"Channel_info_end",
"Channel_info_start",
"Channel : Ti",
"Points : 0",
"Range : 0.000000 - 0.000000",
"Step : 0.010000",
"Channel_info_end",
"Channel_info_start",
"Channel : V ",
"Points : 0",
"Range : 0.000000 - 0.000000",
"Step : 0.010000",
"Channel_info_end",
"Channel_info_start",
"Channel : Cr",
"Points : 0",
"Range : 0.000000 - 0.000000",
"Step : 0.010000",
"Channel_info_end",
"Channel_info_start",
"Channel : Mn",
"Points : 0",
"Range : 0.000000 - 0.000000",
"Step : 0.010000",
"Channel_info_end",
"Channel_info_start",
"Channel : Fe",
"Points : 0",
"Range : 0.000000 - 0.000000",
"Step : 0.010000",
"Channel_info_end",
"Channel_info_start",
"Channel : Cu",
"Points : 0",
"Range : 0.000000 - 0.000000",
"Step : 0.010000",
"Channel_info_end",
"Channel_info_start",
"Channel : Zn",
"Points : 0",
"Range : 0.000000 - 0.000000",
"Step : 0.010000",
"Channel_info_end",
"Channel_info_start",
"Channel : Sr",
"Points : 0",
"Range : 0.000000 - 0.000000",
"Step : 0.010000",
"Channel_info_end",
"Channel_info_start",
"Channel : Pb",
"Points : 0",
"Range : 0.000000 - 0.000000",
"Step : 0.010000",
"Channel_info_end",
"",
"Qualitative Result",
"--------------------------------------------------------------------------------",
"Element :  Pt, S , Ca, Fe, Ru",
"",
"Peak List",
"--------------------------------------------------------------------------------",
"Channel               Line        keV     Net Int.(cps/uA)",
"--------------------------------------------------------------------------------",
"Na                    ----         1.60     0.074",
"                      PtMa         2.08     1.259",
"                      S Ka         2.34     0.113",
"                      ----         2.70     0.039",
"                      CaKa         3.70     0.163",
"                      CaKb         4.03     0.025",
"                      FeKa         6.40     0.031",
"                      ----         6.72     0.030",
"                      PtLL         8.25     0.304",
"                      PtLa         9.43     5.638",
"                      ----         9.99     0.074",
"                      PtLb4       10.77     0.190",
"                      PtLb1       11.06     2.901",
"                      ----        11.28     1.237",
"                      PtLg1       12.92     0.527",
"                      PtLg2       13.24     0.143",
"                      ----        19.12     0.134",
"                      RuKa        19.33     0.112",
"                      ----        19.98     0.093",
"--------------------------------------------------------------------------------",
"",
"Quantitative Result",
"--------------------------------------------------------------------------------",
"Analyte               Result             Std.Dev. Proc.-Calc. Line Intensity(cps/uA)",
"--------------------------------------------------------------------------------",
"====[No. 1 Layer]====< Layer1               >===============================",
"Layer1                   0.000 ug/cm2    -------- Flux       -------- --------",

File: RbI 31511.20100525230918.csv
"Sample    : RbI 31511",
"Operator  : luisf",
"Comment  : cubatao-g-policarbonato",
"Group     : kerr2007ag180cal_lt",
"Date       : 2010-05-25 23:05:15",
"",
"Mesurement Condition",
"------------------------------------------------------------------------------------",
"Instrument : 700HS2   Atmosphere : Vac.   Collimator : 10(mm)   Spin : No",
"------------------------------------------------------------------------------------",
"Analyte               TG kV   uA      FI Acq.(keV)  Anal.(keV)  Time(sec)     DT(%)",
"------------------------------------------------------------------------------------",
"Na                    Rh 50  237-Auto Al  0 - 20    0.8 - 1.2   Live -  179   15",
"",
"<Profile>",
"Channel_info_start",
"Channel : Na",
"Points : 2048",
"Range : 0.000000 - 20.48",
"Step : 0.010000",
"Channel_info_end",
"0",
"0",
"0",
"0",
"0",
"31",
"31",
"47",
"28",
"40",
"20",
"26",
"29",
"27",
"20",
"23",
"18",
"28",
"23",
"28",
"35",
"74",
"66",
"150",
"794",
"812",
"317",
"100",
"100",
"99",
"59",
"76",
"56",
"28",
"33",
"47",
"49",
"43",
"27",
"47",
"31",
"27",
"30",
"27",
"36",
"35",
"30",
"51",
"61",
"181",
"260",
"228",
"651",
"1014",
"472",
"1827",
"5292",
"3920",
"702",
"962",
"3232",
"3364",
"1334",
"588",
"810",
"756",
"236",
"175",
"398",
"449",
"176",
"158",
"291",
"260",
"106",
"63",
"39",
"33",
"51",
"59",
"35",
"43",
"41",
"49",
"43",
"66",
"61",
"93",
"94",
"114",
"125",
"118",
"129",
"111",
"134",
"127",
"137",
"114",
"103",
"116",
"115",
"104",
"78",
"94",
"95",
"92",
"77",
"98",
"82",
"93",
"86",
"95",
"100",
"115",
"138",
"125",
"95",
"99",
"120",
"104",
"99",
"130",
"152",
"161",
"154",
"139",
"112",
"129",
"120",
"126",
"105",
"106",
"110",
"103",
"77",
"95",
"115",
"111",
"102",
"115",
"89",
"99",
"99",
"89",
"91",
"73",
"94",
"112",
"104",
"95",
"115",
"99",
"86",
"131",
"102",
"98",
"120",
"89",
"107",
"102",
"104",
"113",
"87",
"89",
"100",
"111",
"93",
"104",
"88",
"110",
"92",
"91",
"90",
"80",
"102",
"90",
"85",
"82",
"92",
"91",
"104",
"116",
"90",
"106",
"114",
"123",
"143",
"430",
"1620",
"5072",
"9415",
"11875",
"8854",
"3988",
"1189",
"298",
"120",
"93",
"88",
"79",
"79",
"102",
"79",
"63",
"101",
"80",
"108",
"101",
"112",
"111",
"194",
"523",
"1167",
"1737",
"1686",
"1311",
"702",
"393",
"217",
"126",
"87",
"56",
"56",
"72",
"63",
"64",
"68",
"61",
"73",
"55",
"52",
"67",
"66",
"64",
"56",
"59",
"61",
"51",
"46",
"74",
"60",
"57",
"53",
"60",
"64",
"67",
"54",
"67",
"56",
"64",
"61",
"64",
"67",
"59",
"61",
"71",
"62",
"52",
"59",
"61",
"56",
"57",
"76",
"73",
"67",
"67",
"77",
"108",
"129",
"166",
"190",
"264",
"325",
"359",
"366",
"361",
"344",
"272",
"190",
"154",
"106",
"104",
"93",
"105",
"104",
"151",
"226",
"223",
"202",
"148",
"84",
"48",
"65",
"45207",
"Channel_info_start",
"Channel : Mg",
"Points : 0",
"Range : 0.000000 - 0.000000",
"Step : 0.010000",
"Channel_info_end",
"Channel_info_start",
"Channel : Al",
"Points : 0",
"Range : 0.000000 - 0.000000",
"Step : 0.010000",
"Channel_info_end",
"Channel_info_start",
"Channel : Si",
"Points : 0",
"Range : 0.000000 - 0.000000",
"Step : 0.010000",
"Channel_info_end",
"Channel_info_start",
"Channel : P ",
"Points : 0",
"Range : 0.000000 - 0.000000",
"Step : 0.010000",
"Channel_info_end",
"Channel_info_start",
"Channel : S ",
"Points : 0",
"Range : 0.000000 - 0.000000",
"Step : 0.010000",
"Channel_info_end",
"Channel_info_start",
"Channel : Cl",
"Points : 0",
"Range : 0.000000 - 0.000000",
"Step : 0.010000",
"Channel_info_end",
"Channel_info_start",
"Channel : K ",
"Points : 0",
"Range : 0.000000 - 0.000000",
"Step : 0.010000",
"Channel_info_end",
"Channel_info_start",
"Channel : Ca",
"Points : 0",
"Range : 0.000000 - 0.000000",
"Step : 0.010000",
"Channel_info_end",
"Channel_info_start",
"Channel : Ti",
"Points : 0",
"Range : 0.000000 - 0.000000",
"Step : 0.010000",
"Channel_info_end",
"Channel_info_start",
"Channel : V ",
"Points : 0",
"Range : 0.000000 - 0.000000",
"Step : 0.010000",
"Channel_info_end",
"Channel_info_start",
"Channel : Cr",
"Points : 0",
"Range : 0.000000 - 0.000000",
"Step : 0.010000",
"Channel_info_end",
"Channel_info_start",
"Channel : Mn",
"Points : 0",
"Range : 0.000000 - 0.000000",
"Step : 0.010000",
"Channel_info_end",
"Channel_info_start",
"Channel : Fe",
"Points : 0",
"Range : 0.000000 - 0.000000",
"Step : 0.010000",
"Channel_info_end",
"Channel_info_start",
"Channel : Cu",
"Points : 0",
"Range : 0.000000 - 0.000000",
"Step : 0.010000",
"Channel_info_end",
"Channel_info_start",
"Channel : Zn",
"Points : 0",
"Range : 0.000000 - 0.000000",
"Step : 0.010000",
"Channel_info_end",
"Channel_info_start",
"Channel : Sr",
"Points : 0",
"Range : 0.000000 - 0.000000",
"Step : 0.010000",
"Channel_info_end",
"Channel_info_start",
"Channel : Pb",
"Points : 0",
"Range : 0.000000 - 0.000000",
"Step : 0.010000",
"Channel_info_end",
"",
"Qualitative Result",
"--------------------------------------------------------------------------------",
"Element :  Al, Rb, P , I , Ca, Zn, Rh",
"",
"Peak List",
"--------------------------------------------------------------------------------",
"Channel               Line        keV     Net Int.(cps/uA)",
"--------------------------------------------------------------------------------",
"Na                    AlKa         1.49     0.012",
"                      RbLa         1.71     0.243",
"                      P Ka         1.99     0.020",
"                      I LaESC      2.18     0.015",
"                      I LL         3.49     0.042",
"                      CaKa         3.68     0.250",
"                      I La         3.94     1.766",
"                      CaKb         4.01     0.035",
"                      I Lb1        4.23     1.137",
"                      I Lb2        4.52     0.254",
"                      I Lg1        4.81     0.110",
"                      I Lg2        5.06     0.078",
"                      ZnKa         8.65     0.030",
"                      RbKa        13.36     5.526",
"                      RbKb        14.96     0.869",
"                      RhKaC       19.12     0.138",
"                      ----        19.44     0.065",
"                      RhKa        20.05     0.082",
"--------------------------------------------------------------------------------",
"",
"Quantitative Result",
"--------------------------------------------------------------------------------",
"Analyte               Result             Std.Dev. Proc.-Calc. Line Intensity(cps/uA)",
"--------------------------------------------------------------------------------",
"====[No. 1 Layer]====< Layer1               >===============================",
"Layer1                   0.000 ug/cm2    -------- Flux       -------- --------",