Folder: mestrado_ifusp/inputs/edxCalibration/edx_raw/2010/junho

Note: README.md
Mestrado realizado no IFUSP 2010-2016 (com break no meio).

mkdir ~/texmf/bibtex/bst/
texhash ~/texmf/
kpsewhich your-bibtex-file.bst

/usr/share/texlive/texmf-dist/bibtex/bst/base/apalike.bst
linha 851

File: 31508 Ag.20100626140846.csv
"Sample    : 31508 Ag",
"Operator  : thiago",
"Comment  : cubatao-g-policarbonato",
"Group     : kerr2007ag180cal_lt",
"Date       : 2010-06-26 14:04:32",
"",
"Mesurement Condition",
"------------------------------------------------------------------------------------",
"Instrument : 700HS2   Atmosphere : Vac.   Collimator : 10(mm)   Spin : No",
"------------------------------------------------------------------------------------",
"Analyte               TG kV   uA      FI Acq.(keV)  Anal.(keV)  Time(sec)     DT(%)",
"------------------------------------------------------------------------------------",
"Na                    Rh 50  393-Auto Al  0 - 20    0.8 - 1.2   Live -  179   16",
"",
"<Profile>",
"Channel_info_start",
"Channel : Na",
"Points : 2048",
"Range : 0.000000 - 20.48",
"Step : 0.010000",
"Channel_info_end",
"0",
"0",
"0",
"0",
"0",
"55",
"47",
"47",
"52",
"51",
"56",
"61",
"49",
"46",
"47",
"59",
"45",
"148",
"189",
"99",
"146",
"141",
"99",
"83",
"69",
"90",
"83",
"73",
"119",
"140",
"80",
"72",
"70",
"92",
"87",
"119",
"158",
"415",
"592",
"364",
"449",
"1070",
"6594",
"10340",
"4040",
"5360",
"3815",
"1705",
"1232",
"727",
"523",
"532",
"1017",
"1551",
"662",
"161",
"112",
"204",
"192",
"81",
"46",
"56",
"44",
"72",
"88",
"81",
"87",
"76",
"68",
"62",
"78",
"71",
"50",
"62",
"61",
"94",
"104",
"107",
"106",
"108",
"100",
"99",
"78",
"77",
"95",
"77",
"105",
"135",
"171",
"203",
"185",
"241",
"259",
"203",
"186",
"173",
"160",
"169",
"141",
"131",
"153",
"143",
"140",
"135",
"138",
"149",
"138",
"146",
"138",
"144",
"158",
"156",
"143",
"155",
"182",
"225",
"207",
"180",
"213",
"205",
"235",
"226",
"227",
"264",
"257",
"173",
"153",
"168",
"185",
"181",
"155",
"159",
"170",
"185",
"178",
"177",
"159",
"191",
"179",
"178",
"184",
"201",
"180",
"181",
"164",
"172",
"132",
"159",
"153",
"145",
"138",
"147",
"146",
"125",
"144",
"150",
"147",
"178",
"183",
"186",
"165",
"150",
"155",
"195",
"143",
"172",
"145",
"177",
"165",
"135",
"130",
"129",
"162",
"145",
"125",
"145",
"133",
"141",
"129",
"125",
"138",
"125",
"141",
"122",
"116",
"143",
"145",
"120",
"138",
"96",
"121",
"117",
"145",
"110",
"137",
"147",
"142",
"130",
"140",
"142",
"122",
"119",
"143",
"140",
"142",
"116",
"124",
"136",
"125",
"120",
"97",
"105",
"125",
"134",
"135",
"114",
"119",
"112",
"102",
"90",
"107",
"105",
"99",
"97",
"96",
"104",
"101",
"111",
"95",
"87",
"93",
"97",
"94",
"100",
"105",
"107",
"88",
"99",
"80",
"90",
"92",
"81",
"81",
"117",
"101",
"89",
"94",
"106",
"96",
"83",
"92",
"95",
"98",
"89",
"100",
"102",
"118",
"95",
"84",
"108",
"101",
"112",
"107",
"104",
"136",
"117",
"142",
"168",
"191",
"262",
"307",
"398",
"503",
"523",
"584",
"546",
"529",
"424",
"375",
"259",
"266",
"172",
"138",
"128",
"183",
"238",
"317",
"373",
"342",
"238",
"170",
"108",
"98",
"247093",
"Channel_info_start",
"Channel : Mg",
"Points : 0",
"Range : 0.000000 - 0.000000",
"Step : 0.010000",
"Channel_info_end",
"Channel_info_start",
"Channel : Al",
"Points : 0",
"Range : 0.000000 - 0.000000",
"Step : 0.010000",
"Channel_info_end",
"Channel_info_start",
"Channel : Si",
"Points : 0",
"Range : 0.000000 - 0.000000",
"Step : 0.010000",
"Channel_info_end",
"Channel_info_start",
"Channel : P ",
"Points : 0",
"Range : 0.000000 - 0.000000",
"Step : 0.010000",
"Channel_info_end",
"Channel_info_start",
"Channel : S ",
"Points : 0",
"Range : 0.000000 - 0.000000",
"Step : 0.010000",
"Channel_info_end",
"Channel_info_start",
"Channel : Cl",
"Points : 0",
"Range : 0.000000 - 0.000000",
"Step : 0.010000",
"Channel_info_end",
"Channel_info_start",
"Channel : K ",
"Points : 0",
"Range : 0.000000 - 0.000000",
"Step : 0.010000",
"Channel_info_end",
"Channel_info_start",
"Channel : Ca",
"Points : 0",
"Range : 0.000000 - 0.000000",
"Step : 0.010000",
"Channel_info_end",
"Channel_info_start",
"Channel : Ti",
"Points : 0",
"Range : 0.000000 - 0.000000",
"Step : 0.010000",
"Channel_info_end",
"Channel_info_start",
"Channel : V ",
"Points : 0",
"Range : 0.000000 - 0.000000",
"Step : 0.010000",
"Channel_info_end",
"Channel_info_start",
"Channel : Cr",
"Points : 0",
"Range : 0.000000 - 0.000000",
"Step : 0.010000",
"Channel_info_end",
"Channel_info_start",
"Channel : Mn",
"Points : 0",
"Range : 0.000000 - 0.000000",
"Step : 0.010000",
"Channel_info_end",
"Channel_info_start",
"Channel : Fe",
"Points : 0",
"Range : 0.000000 - 0.000000",
"Step : 0.010000",
"Channel_info_end",
"Channel_info_start",
"Channel : Cu",
"Points : 0",
"Range : 0.000000 - 0.000000",
"Step : 0.010000",
"Channel_info_end",
"Channel_info_start",
"Channel : Zn",
"Points : 0",
"Range : 0.000000 - 0.000000",
"Step : 0.010000",
"Channel_info_end",
"Channel_info_start",
"Channel : Sr",
"Points : 0",
"Range : 0.000000 - 0.000000",
"Step : 0.010000",
"Channel_info_end",
"Channel_info_start",
"Channel : Pb",
"Points : 0",
"Range : 0.000000 - 0.000000",
"Step : 0.010000",
"Channel_info_end",
"",
"Qualitative Result",
"--------------------------------------------------------------------------------",
"Element :  Mg, P , Cl, Cd, Ca, Zn, Rh",
"",
"Peak List",
"--------------------------------------------------------------------------------",
"Channel               Line        keV     Net Int.(cps/uA)",
"--------------------------------------------------------------------------------",
"Na                    MgKa         1.24     0.026",
"                      ----         1.40     0.013",
"                      P Ka         2.00     0.021",
"                      ClKa         2.64     0.069",
"                      ----         2.99     1.914",
"                      CdLa         3.16     0.957",
"                      CdLb1        3.38     0.141",
"                      CdLb2        3.52     0.046",
"                      CdLg1        3.70     0.048",
"                      CaKa         3.70     0.208",
"                      CaKb         4.03     0.022",
"                      ----         6.46     0.035",
"                      ZnKa         8.64     0.030",
"                      RhKaC       19.21     0.138",
"                      ----        19.47     0.057",
"                      RhKa        20.09     0.084",
"--------------------------------------------------------------------------------",
"",
"Quantitative Result",
"--------------------------------------------------------------------------------",
"Analyte               Result             Std.Dev. Proc.-Calc. Line Intensity(cps/uA)",
"--------------------------------------------------------------------------------",
"====[No. 1 Layer]====< Layer1               >===============================",
"Layer1                   8.660 ug/cm2    -------- Flux       -------- --------",
"Mg                       8.660 ug/cm2    -------- ********** -------- --------",

File: Aa 31508.20100525235801.csv
"Sample    : Aa 31508",
"Operator  : luisf",
"Comment  : cubatao-g-policarbonato",
"Group     : kerr2007ag180cal_lt",
"Date       : 2010-05-25 23:53:50",
"",
"Mesurement Condition",
"------------------------------------------------------------------------------------",
"Instrument : 700HS2   Atmosphere : Vac.   Collimator : 10(mm)   Spin : No",
"------------------------------------------------------------------------------------",
"Analyte               TG kV   uA      FI Acq.(keV)  Anal.(keV)  Time(sec)     DT(%)",
"------------------------------------------------------------------------------------",
"Na                    Rh 50  360-Auto Al  0 - 20    0.8 - 1.2   Live -  179   15",
"",
"<Profile>",
"Channel_info_start",
"Channel : Na",
"Points : 2048",
"Range : 0.000000 - 20.48",
"Step : 0.010000",
"Channel_info_end",
"0",
"0",
"0",
"0",
"0",
"53",
"54",
"53",
"41",
"39",
"37",
"44",
"56",
"68",
"51",
"68",
"64",
"140",
"193",
"91",
"125",
"108",
"79",
"94",
"78",
"98",
"67",
"77",
"140",
"166",
"79",
"56",
"52",
"80",
"85",
"134",
"154",
"437",
"527",
"323",
"402",
"1087",
"6422",
"9196",
"3568",
"5142",
"3374",
"1454",
"1126",
"639",
"497",
"534",
"917",
"1443",
"583",
"152",
"87",
"179",
"167",
"73",
"46",
"48",
"47",
"56",
"65",
"69",
"78",
"77",
"74",
"43",
"61",
"55",
"66",
"72",
"65",
"86",
"96",
"112",
"101",
"108",
"93",
"88",
"69",
"79",
"68",
"103",
"96",
"119",
"154",
"203",
"205",
"233",
"221",
"219",
"183",
"189",
"166",
"170",
"127",
"134",
"118",
"119",
"117",
"118",
"132",
"105",
"99",
"135",
"147",
"145",
"140",
"168",
"131",
"180",
"171",
"216",
"187",
"186",
"183",
"203",
"189",
"212",
"229",
"238",
"213",
"187",
"144",
"155",
"163",
"165",
"145",
"171",
"176",
"172",
"159",
"177",
"190",
"196",
"163",
"157",
"164",
"152",
"137",
"158",
"158",
"183",
"120",
"133",
"137",
"139",
"108",
"132",
"143",
"140",
"145",
"132",
"142",
"148",
"159",
"151",
"157",
"148",
"135",
"172",
"174",
"166",
"135",
"160",
"121",
"120",
"128",
"139",
"141",
"137",
"121",
"150",
"127",
"156",
"150",
"130",
"115",
"135",
"130",
"130",
"109",
"126",
"119",
"135",
"119",
"107",
"118",
"121",
"112",
"121",
"116",
"131",
"126",
"112",
"115",
"124",
"124",
"107",
"103",
"103",
"118",
"105",
"114",
"112",
"116",
"127",
"107",
"113",
"89",
"103",
"100",
"74",
"107",
"114",
"109",
"72",
"101",
"99",
"86",
"83",
"107",
"77",
"95",
"88",
"92",
"82",
"108",
"90",
"78",
"96",
"90",
"95",
"91",
"92",
"89",
"89",
"92",
"104",
"83",
"100",
"72",
"107",
"87",
"102",
"68",
"89",
"94",
"91",
"92",
"86",
"80",
"95",
"85",
"103",
"90",
"103",
"99",
"99",
"117",
"120",
"102",
"143",
"134",
"157",
"195",
"236",
"274",
"405",
"479",
"491",
"533",
"537",
"462",
"429",
"306",
"244",
"169",
"145",
"117",
"144",
"182",
"247",
"301",
"335",
"296",
"208",
"127",
"107",
"87",
"227225",
"Channel_info_start",
"Channel : Mg",
"Points : 0",
"Range : 0.000000 - 0.000000",
"Step : 0.010000",
"Channel_info_end",
"Channel_info_start",
"Channel : Al",
"Points : 0",
"Range : 0.000000 - 0.000000",
"Step : 0.010000",
"Channel_info_end",
"Channel_info_start",
"Channel : Si",
"Points : 0",
"Range : 0.000000 - 0.000000",
"Step : 0.010000",
"Channel_info_end",
"Channel_info_start",
"Channel : P ",
"Points : 0",
"Range : 0.000000 - 0.000000",
"Step : 0.010000",
"Channel_info_end",
"Channel_info_start",
"Channel : S ",
"Points : 0",
"Range : 0.000000 - 0.000000",
"Step : 0.010000",
"Channel_info_end",
"Channel_info_start",
"Channel : Cl",
"Points : 0",
"Range : 0.000000 - 0.000000",
"Step : 0.010000",
"Channel_info_end",
"Channel_info_start",
"Channel : K ",
"Points : 0",
"Range : 0.000000 - 0.000000",
"Step : 0.010000",
"Channel_info_end",
"Channel_info_start",
"Channel : Ca",
"Points : 0",
"Range : 0.000000 - 0.000000",
"Step : 0.010000",
"Channel_info_end",
"Channel_info_start",
"Channel : Ti",
"Points : 0",
"Range : 0.000000 - 0.000000",
"Step : 0.010000",
"Channel_info_end",
"Channel_info_start",
"Channel : V ",
"Points : 0",
"Range : 0.000000 - 0.000000",
"Step : 0.010000",
"Channel_info_end",
"Channel_info_start",
"Channel : Cr",
"Points : 0",
"Range : 0.000000 - 0.000000",
"Step : 0.010000",
"Channel_info_end",
"Channel_info_start",
"Channel : Mn",
"Points : 0",
"Range : 0.000000 - 0.000000",
"Step : 0.010000",
"Channel_info_end",
"Channel_info_start",
"Channel : Fe",
"Points : 0",
"Range : 0.000000 - 0.000000",
"Step : 0.010000",
"Channel_info_end",
"Channel_info_start",
"Channel : Cu",
"Points : 0",
"Range : 0.000000 - 0.000000",
"Step : 0.010000",
"Channel_info_end",
"Channel_info_start",
"Channel : Zn",
"Points : 0",
"Range : 0.000000 - 0.000000",
"Step : 0.010000",
"Channel_info_end",
"Channel_info_start",
"Channel : Sr",
"Points : 0",
"Range : 0.000000 - 0.000000",
"Step : 0.010000",
"Channel_info_end",
"Channel_info_start",
"Channel : Pb",
"Points : 0",
"Range : 0.000000 - 0.000000",
"Step : 0.010000",
"Channel_info_end",
"",
"Qualitative Result",
"--------------------------------------------------------------------------------",
"Element :  Mg, Al, P , Cl, Cd, Rh",
"",
"Peak List",
"--------------------------------------------------------------------------------",
"Channel               Line        keV     Net Int.(cps/uA)",
"--------------------------------------------------------------------------------",
"Na                    MgKa         1.23     0.027",
"                      AlKa         1.43     0.013",
"                      P Ka         2.00     0.019",
"                      ClKa         2.64     0.070",
"                      ----         2.98     1.923",
"                      CdLa         3.16     0.977",
"                      CdLb1        3.36     0.173",
"                      CdLb2        3.52     0.037",
"                      CdLg1        3.70     0.274",
"                      CdLg2        4.01     0.030",
"                      ----         6.21     0.023",
"                      CdLaSUM      6.36     0.037",
"                      ----         8.63     0.027",
"                      ----        18.98     0.087",
"                      RhKaC       19.20     0.140",
"                      ----        19.48     0.051",
"                      RhKa        20.07     0.081",
"--------------------------------------------------------------------------------",
"",
"Quantitative Result",
"--------------------------------------------------------------------------------",
"Analyte               Result             Std.Dev. Proc.-Calc. Line Intensity(cps/uA)",
"--------------------------------------------------------------------------------",
"====[No. 1 Layer]====< Layer1               >===============================",
"Layer1                   8.789 ug/cm2    -------- Flux       -------- --------",
"Mg                       8.789 ug/cm2    -------- ********** -------- --------",

File: Ag 31508.20100611023115.csv
"Sample    : Ag 31508",
"Operator  : Luís",
"Comment  : cubatao-g-policarbonato",
"Group     : kerr2007ag180cal_lt",
"Date       : 2010-06-11 02:27:02",
"",
"Mesurement Condition",
"------------------------------------------------------------------------------------",
"Instrument : 700HS2   Atmosphere : Vac.   Collimator : 10(mm)   Spin : No",
"------------------------------------------------------------------------------------",
"Analyte               TG kV   uA      FI Acq.(keV)  Anal.(keV)  Time(sec)     DT(%)",
"------------------------------------------------------------------------------------",
"Na                    Rh 50  393-Auto Al  0 - 20    0.8 - 1.2   Live -  179   15",
"",
"<Profile>",
"Channel_info_start",
"Channel : Na",
"Points : 2048",
"Range : 0.000000 - 20.48",
"Step : 0.010000",
"Channel_info_end",
"0",
"0",
"0",
"0",
"1",
"53",
"48",
"54",
"52",
"44",
"45",
"52",
"65",
"61",
"44",
"62",
"73",
"163",
"187",
"106",
"149",
"121",
"75",
"75",
"77",
"90",
"81",
"88",
"132",
"155",
"76",
"65",
"63",
"80",
"83",
"111",
"160",
"447",
"594",
"389",
"419",
"1246",
"6908",
"9885",
"4008",
"5399",
"3649",
"1638",
"1219",
"665",
"464",
"502",
"1019",
"1541",
"590",
"161",
"85",
"195",
"137",
"66",
"51",
"36",
"53",
"59",
"62",
"77",
"84",
"85",
"53",
"59",
"69",
"58",
"54",
"72",
"69",
"102",
"93",
"101",
"102",
"119",
"100",
"85",
"81",
"102",
"99",
"112",
"107",
"156",
"182",
"247",
"224",
"279",
"260",
"245",
"194",
"181",
"164",
"171",
"163",
"149",
"126",
"156",
"130",
"132",
"122",
"121",
"161",
"158",
"132",
"135",
"168",
"137",
"154",
"169",
"187",
"218",
"225",
"199",
"196",
"224",
"224",
"243",
"229",
"291",
"257",
"180",
"149",
"156",
"147",
"151",
"185",
"169",
"171",
"170",
"178",
"187",
"162",
"222",
"154",
"192",
"186",
"169",
"145",
"209",
"176",
"179",
"146",
"146",
"109",
"129",
"156",
"159",
"156",
"163",
"152",
"159",
"170",
"152",
"147",
"180",
"169",
"179",
"163",
"145",
"176",
"140",
"151",
"178",
"173",
"138",
"145",
"161",
"129",
"136",
"136",
"169",
"147",
"143",
"133",
"142",
"151",
"126",
"151",
"129",
"137",
"130",
"120",
"156",
"140",
"137",
"145",
"122",
"122",
"123",
"135",
"100",
"121",
"134",
"125",
"119",
"132",
"145",
"111",
"119",
"119",
"121",
"102",
"123",
"111",
"108",
"102",
"140",
"109",
"120",
"83",
"122",
"98",
"123",
"88",
"108",
"101",
"100",
"112",
"109",
"98",
"101",
"94",
"78",
"110",
"118",
"99",
"103",
"98",
"93",
"97",
"118",
"105",
"113",
"96",
"107",
"90",
"113",
"119",
"103",
"101",
"113",
"95",
"118",
"102",
"108",
"83",
"98",
"106",
"110",
"86",
"90",
"121",
"89",
"98",
"108",
"106",
"113",
"109",
"108",
"139",
"144",
"152",
"192",
"206",
"249",
"328",
"443",
"498",
"534",
"525",
"551",
"470",
"404",
"298",
"264",
"218",
"174",
"161",
"154",
"182",
"258",
"330",
"357",
"337",
"232",
"136",
"93",
"99",
"244528",
"Channel_info_start",
"Channel : Mg",
"Points : 0",
"Range : 0.000000 - 0.000000",
"Step : 0.010000",
"Channel_info_end",
"Channel_info_start",
"Channel : Al",
"Points : 0",
"Range : 0.000000 - 0.000000",
"Step : 0.010000",
"Channel_info_end",
"Channel_info_start",
"Channel : Si",
"Points : 0",
"Range : 0.000000 - 0.000000",
"Step : 0.010000",
"Channel_info_end",
"Channel_info_start",
"Channel : P ",
"Points : 0",
"Range : 0.000000 - 0.000000",
"Step : 0.010000",
"Channel_info_end",
"Channel_info_start",
"Channel : S ",
"Points : 0",
"Range : 0.000000 - 0.000000",
"Step : 0.010000",
"Channel_info_end",
"Channel_info_start",
"Channel : Cl",
"Points : 0",
"Range : 0.000000 - 0.000000",
"Step : 0.010000",
"Channel_info_end",
"Channel_info_start",
"Channel : K ",
"Points : 0",
"Range : 0.000000 - 0.000000",
"Step : 0.010000",
"Channel_info_end",
"Channel_info_start",
"Channel : Ca",
"Points : 0",
"Range : 0.000000 - 0.000000",
"Step : 0.010000",
"Channel_info_end",
"Channel_info_start",
"Channel : Ti",
"Points : 0",
"Range : 0.000000 - 0.000000",
"Step : 0.010000",
"Channel_info_end",
"Channel_info_start",
"Channel : V ",
"Points : 0",
"Range : 0.000000 - 0.000000",
"Step : 0.010000",
"Channel_info_end",
"Channel_info_start",
"Channel : Cr",
"Points : 0",
"Range : 0.000000 - 0.000000",
"Step : 0.010000",
"Channel_info_end",
"Channel_info_start",
"Channel : Mn",
"Points : 0",
"Range : 0.000000 - 0.000000",
"Step : 0.010000",
"Channel_info_end",
"Channel_info_start",
"Channel : Fe",
"Points : 0",
"Range : 0.000000 - 0.000000",
"Step : 0.010000",
"Channel_info_end",
"Channel_info_start",
"Channel : Cu",
"Points : 0",
"Range : 0.000000 - 0.000000",
"Step : 0.010000",
"Channel_info_end",
"Channel_info_start",
"Channel : Zn",
"Points : 0",
"Range : 0.000000 - 0.000000",
"Step : 0.010000",
"Channel_info_end",
"Channel_info_start",
"Channel : Sr",
"Points : 0",
"Range : 0.000000 - 0.000000",
"Step : 0.010000",
"Channel_info_end",
"Channel_info_start",
"Channel : Pb",
"Points : 0",
"Range : 0.000000 - 0.000000",
"Step : 0.010000",
"Channel_info_end",
"",
"Qualitative Result",
"--------------------------------------------------------------------------------",
"Element :  Mg, Al, P , Cl, In, K , Ca, Rh",
"",
"Peak List",
"--------------------------------------------------------------------------------",
"Channel               Line        keV     Net Int.(cps/uA)",
"--------------------------------------------------------------------------------",
"Na                    MgKa         1.24     0.025",
"                      AlKa         1.44     0.014",
"                      P Ka         2.00     0.018",
"                      ClKa         2.64     0.067",
"                      ----         2.98     1.892",
"                      ----         3.16     0.949",
"                      InLa         3.29     0.049",
"                      K Ka         3.38     0.126",
"                      K Kb         3.52     0.018",
"                      InLb1        3.52     0.024",
"                      CaKa         3.69     0.269",
"                      CaKb         4.02     0.025",
"                      ----         6.16     0.019",
"                      ----         6.41     0.030",
"                      RhKaC       19.23     0.118",
"                      ----        19.51     0.038",
"                      RhKa        20.09     0.079",
"--------------------------------------------------------------------------------",
"",
"Quantitative Result",
"--------------------------------------------------------------------------------",
"Analyte               Result             Std.Dev. Proc.-Calc. Line Intensity(cps/uA)",
"--------------------------------------------------------------------------------",
"====[No. 1 Layer]====< Layer1               >===============================",
"Layer1                   8.246 ug/cm2    -------- Flux       -------- --------",
"Mg                       8.246 ug/cm2    -------- ********** -------- --------",