Folder: mestrado_ifusp/inputs/edxCalibration/edx_raw/2010/outubro

Note: README.md
Mestrado realizado no IFUSP 2010-2016 (com break no meio).

mkdir ~/texmf/bibtex/bst/
texhash ~/texmf/
kpsewhich your-bibtex-file.bst

/usr/share/texlive/texmf-dist/bibtex/bst/base/apalike.bst
linha 851

File: sio2-31493.20101117012440.csv
"Sample    : sio2-31493",
"Operator  : Americo",
"Comment  : cal 47,5",
"Group     : kerr2007ag180cal_lt",
"Date       : 2010-11-17 01:20:27",
"",
"Mesurement Condition",
"------------------------------------------------------------------------------------",
"Instrument : 700HS2   Atmosphere : Vac.   Collimator : 10(mm)   Spin : No",
"------------------------------------------------------------------------------------",
"Analyte               TG kV   uA      FI Acq.(keV)  Anal.(keV)  Time(sec)     DT(%)",
"------------------------------------------------------------------------------------",
"Na                    Rh 50  970-Auto Al  0 - 20    0.8 - 1.2   Live -  180   15",
"",
"<Profile>",
"Channel_info_start",
"Channel : Na",
"Points : 2048",
"Range : 0.000000 - 20.48",
"Step : 0.010000",
"Channel_info_end",
"0",
"0",
"0",
"0",
"0",
"54",
"48",
"48",
"53",
"51",
"41",
"45",
"46",
"37",
"36",
"41",
"45",
"59",
"41",
"53",
"57",
"91",
"97",
"198",
"2744",
"6722",
"2169",
"302",
"226",
"280",
"101",
"36",
"28",
"43",
"20",
"31",
"20",
"47",
"51",
"53",
"39",
"50",
"44",
"39",
"45",
"39",
"47",
"49",
"54",
"60",
"81",
"485",
"2163",
"3332",
"1163",
"224",
"220",
"419",
"360",
"148",
"69",
"85",
"101",
"120",
"154",
"177",
"142",
"175",
"159",
"143",
"100",
"141",
"137",
"124",
"138",
"139",
"155",
"171",
"138",
"172",
"152",
"163",
"189",
"197",
"195",
"226",
"173",
"269",
"248",
"242",
"256",
"276",
"302",
"270",
"290",
"286",
"286",
"311",
"276",
"337",
"290",
"294",
"279",
"295",
"327",
"311",
"271",
"296",
"276",
"314",
"294",
"299",
"327",
"366",
"390",
"405",
"325",
"339",
"307",
"311",
"301",
"354",
"409",
"519",
"463",
"365",
"304",
"356",
"331",
"318",
"286",
"333",
"266",
"295",
"282",
"326",
"362",
"283",
"323",
"296",
"300",
"318",
"291",
"319",
"273",
"309",
"276",
"287",
"300",
"313",
"300",
"313",
"282",
"291",
"272",
"308",
"274",
"272",
"265",
"299",
"333",
"315",
"270",
"262",
"283",
"302",
"251",
"253",
"273",
"291",
"245",
"251",
"268",
"271",
"244",
"281",
"289",
"285",
"272",
"271",
"230",
"278",
"244",
"255",
"277",
"291",
"260",
"226",
"252",
"223",
"232",
"251",
"256",
"230",
"209",
"259",
"254",
"224",
"246",
"233",
"233",
"208",
"211",
"245",
"250",
"234",
"182",
"204",
"213",
"236",
"216",
"238",
"207",
"227",
"190",
"231",
"204",
"239",
"228",
"204",
"213",
"217",
"204",
"202",
"212",
"206",
"210",
"193",
"214",
"197",
"207",
"204",
"214",
"178",
"183",
"211",
"201",
"223",
"155",
"204",
"212",
"167",
"164",
"193",
"183",
"194",
"189",
"204",
"192",
"180",
"198",
"199",
"190",
"189",
"207",
"196",
"209",
"200",
"198",
"203",
"216",
"216",
"207",
"240",
"275",
"291",
"317",
"386",
"537",
"664",
"781",
"1030",
"1219",
"1280",
"1319",
"1279",
"1097",
"939",
"689",
"552",
"422",
"338",
"300",
"312",
"324",
"421",
"459",
"536",
"474",
"327",
"236",
"181",
"159",
"91264",
"Channel_info_start",
"Channel : Mg",
"Points : 0",
"Range : 0.000000 - 0.000000",
"Step : 0.010000",
"Channel_info_end",
"Channel_info_start",
"Channel : Al",
"Points : 0",
"Range : 0.000000 - 0.000000",
"Step : 0.010000",
"Channel_info_end",
"Channel_info_start",
"Channel : Si",
"Points : 0",
"Range : 0.000000 - 0.000000",
"Step : 0.010000",
"Channel_info_end",
"Channel_info_start",
"Channel : P ",
"Points : 0",
"Range : 0.000000 - 0.000000",
"Step : 0.010000",
"Channel_info_end",
"Channel_info_start",
"Channel : S ",
"Points : 0",
"Range : 0.000000 - 0.000000",
"Step : 0.010000",
"Channel_info_end",
"Channel_info_start",
"Channel : Cl",
"Points : 0",
"Range : 0.000000 - 0.000000",
"Step : 0.010000",
"Channel_info_end",
"Channel_info_start",
"Channel : K ",
"Points : 0",
"Range : 0.000000 - 0.000000",
"Step : 0.010000",
"Channel_info_end",
"Channel_info_start",
"Channel : Ca",
"Points : 0",
"Range : 0.000000 - 0.000000",
"Step : 0.010000",
"Channel_info_end",
"Channel_info_start",
"Channel : Ti",
"Points : 0",
"Range : 0.000000 - 0.000000",
"Step : 0.010000",
"Channel_info_end",
"Channel_info_start",
"Channel : V ",
"Points : 0",
"Range : 0.000000 - 0.000000",
"Step : 0.010000",
"Channel_info_end",
"Channel_info_start",
"Channel : Cr",
"Points : 0",
"Range : 0.000000 - 0.000000",
"Step : 0.010000",
"Channel_info_end",
"Channel_info_start",
"Channel : Mn",
"Points : 0",
"Range : 0.000000 - 0.000000",
"Step : 0.010000",
"Channel_info_end",
"Channel_info_start",
"Channel : Fe",
"Points : 0",
"Range : 0.000000 - 0.000000",
"Step : 0.010000",
"Channel_info_end",
"Channel_info_start",
"Channel : Cu",
"Points : 0",
"Range : 0.000000 - 0.000000",
"Step : 0.010000",
"Channel_info_end",
"Channel_info_start",
"Channel : Zn",
"Points : 0",
"Range : 0.000000 - 0.000000",
"Step : 0.010000",
"Channel_info_end",
"Channel_info_start",
"Channel : Sr",
"Points : 0",
"Range : 0.000000 - 0.000000",
"Step : 0.010000",
"Channel_info_end",
"Channel_info_start",
"Channel : Pb",
"Points : 0",
"Range : 0.000000 - 0.000000",
"Step : 0.010000",
"Channel_info_end",
"",
"Qualitative Result",
"--------------------------------------------------------------------------------",
"Element :  Si, P , Ca, Ti, Ru",
"",
"Peak List",
"--------------------------------------------------------------------------------",
"Channel               Line        keV     Net Int.(cps/uA)",
"--------------------------------------------------------------------------------",
"Na                    SiKa         1.74     0.427",
"                      P Ka         2.00     0.017",
"                      CaKa         3.70     0.259",
"                      CaKb         4.02     0.031",
"                      TiKa         4.57     0.008",
"                      ----         8.62     0.021",
"                      RuKa        19.21     0.129",
"                      ----        19.48     0.042",
"                      ----        19.98     0.029",
"--------------------------------------------------------------------------------",
"",
"Quantitative Result",
"--------------------------------------------------------------------------------",
"Analyte               Result             Std.Dev. Proc.-Calc. Line Intensity(cps/uA)",
"--------------------------------------------------------------------------------",
"====[No. 1 Layer]====< Layer1               >===============================",
"Layer1                   0.000 ug/cm2    -------- Flux       -------- --------",