Folder: mestrado_ifusp/inputs/edxCalibration/edx_raw/2010-06 (part 9)

File: MoO3 31507.20100525234940.csv
"Sample    : MoO3 31507",
"Operator  : luisf",
"Comment  : cubatao-g-policarbonato",
"Group     : kerr2007ag180cal_lt",
"Date       : 2010-05-25 23:45:36",
"",
"Mesurement Condition",
"------------------------------------------------------------------------------------",
"Instrument : 700HS2   Atmosphere : Vac.   Collimator : 10(mm)   Spin : No",
"------------------------------------------------------------------------------------",
"Analyte               TG kV   uA      FI Acq.(keV)  Anal.(keV)  Time(sec)     DT(%)",
"------------------------------------------------------------------------------------",
"Na                    Rh 50  210-Auto Al  0 - 20    0.8 - 1.2   Live -  179   14",
"",
"<Profile>",
"Channel_info_start",
"Channel : Na",
"Points : 2048",
"Range : 0.000000 - 20.48",
"Step : 0.010000",
"Channel_info_end",
"0",
"0",
"0",
"0",
"0",
"33",
"39",
"52",
"66",
"60",
"48",
"52",
"44",
"39",
"50",
"62",
"53",
"51",
"33",
"41",
"32",
"34",
"29",
"23",
"30",
"39",
"42",
"68",
"151",
"218",
"120",
"197",
"1076",
"2088",
"1300",
"802",
"285",
"115",
"71",
"40",
"54",
"55",
"26",
"19",
"18",
"24",
"19",
"25",
"19",
"29",
"34",
"123",
"592",
"813",
"259",
"65",
"57",
"131",
"90",
"54",
"32",
"25",
"28",
"39",
"42",
"53",
"51",
"61",
"59",
"39",
"43",
"51",
"45",
"41",
"52",
"56",
"46",
"48",
"51",
"69",
"59",
"51",
"78",
"72",
"82",
"55",
"61",
"88",
"75",
"72",
"86",
"72",
"95",
"76",
"62",
"106",
"90",
"101",
"85",
"88",
"92",
"87",
"78",
"68",
"83",
"92",
"76",
"86",
"98",
"79",
"79",
"68",
"98",
"106",
"113",
"116",
"107",
"94",
"114",
"107",
"83",
"107",
"110",
"143",
"127",
"115",
"72",
"88",
"112",
"92",
"81",
"89",
"96",
"82",
"82",
"114",
"99",
"95",
"96",
"87",
"78",
"75",
"84",
"95",
"71",
"92",
"88",
"101",
"88",
"76",
"82",
"98",
"86",
"76",
"76",
"74",
"70",
"76",
"76",
"92",
"79",
"73",
"71",
"86",
"69",
"88",
"64",
"95",
"78",
"95",
"60",
"75",
"62",
"62",
"69",
"79",
"58",
"65",
"81",
"73",
"80",
"56",
"66",
"81",
"79",
"73",
"57",
"62",
"67",
"70",
"64",
"80",
"74",
"73",
"68",
"81",
"78",
"83",
"78",
"60",
"58",
"74",
"59",
"64",
"56",
"66",
"78",
"51",
"60",
"92",
"54",
"62",
"70",
"55",
"52",
"65",
"57",
"52",
"74",
"68",
"60",
"72",
"60",
"78",
"57",
"61",
"57",
"69",
"61",
"57",
"65",
"75",
"60",
"61",
"55",
"75",
"57",
"67",
"58",
"92",
"70",
"104",
"118",
"153",
"360",
"1221",
"3249",
"7138",
"10927",
"12499",
"10321",
"6620",
"2796",
"896",
"233",
"83",
"75",
"67",
"55",
"59",
"68",
"62",
"72",
"64",
"76",
"78",
"88",
"115",
"122",
"169",
"174",
"257",
"294",
"312",
"347",
"375",
"503",
"948",
"1549",
"2154",
"2130",
"1740",
"928",
"643",
"491",
"442",
"341",
"240",
"168",
"92",
"62",
"56",
"39",
"22552",
"Channel_info_start",
"Channel : Mg",
"Points : 0",
"Range : 0.000000 - 0.000000",
"Step : 0.010000",
"Channel_info_end",
"Channel_info_start",
"Channel : Al",
"Points : 0",
"Range : 0.000000 - 0.000000",
"Step : 0.010000",
"Channel_info_end",
"Channel_info_start",
"Channel : Si",
"Points : 0",
"Range : 0.000000 - 0.000000",
"Step : 0.010000",
"Channel_info_end",
"Channel_info_start",
"Channel : P ",
"Points : 0",
"Range : 0.000000 - 0.000000",
"Step : 0.010000",
"Channel_info_end",
"Channel_info_start",
"Channel : S ",
"Points : 0",
"Range : 0.000000 - 0.000000",
"Step : 0.010000",
"Channel_info_end",
"Channel_info_start",
"Channel : Cl",
"Points : 0",
"Range : 0.000000 - 0.000000",
"Step : 0.010000",
"Channel_info_end",
"Channel_info_start",
"Channel : K ",
"Points : 0",
"Range : 0.000000 - 0.000000",
"Step : 0.010000",
"Channel_info_end",
"Channel_info_start",
"Channel : Ca",
"Points : 0",
"Range : 0.000000 - 0.000000",
"Step : 0.010000",
"Channel_info_end",
"Channel_info_start",
"Channel : Ti",
"Points : 0",
"Range : 0.000000 - 0.000000",
"Step : 0.010000",
"Channel_info_end",
"Channel_info_start",
"Channel : V ",
"Points : 0",
"Range : 0.000000 - 0.000000",
"Step : 0.010000",
"Channel_info_end",
"Channel_info_start",
"Channel : Cr",
"Points : 0",
"Range : 0.000000 - 0.000000",
"Step : 0.010000",
"Channel_info_end",
"Channel_info_start",
"Channel : Mn",
"Points : 0",
"Range : 0.000000 - 0.000000",
"Step : 0.010000",
"Channel_info_end",
"Channel_info_start",
"Channel : Fe",
"Points : 0",
"Range : 0.000000 - 0.000000",
"Step : 0.010000",
"Channel_info_end",
"Channel_info_start",
"Channel : Cu",
"Points : 0",
"Range : 0.000000 - 0.000000",
"Step : 0.010000",
"Channel_info_end",
"Channel_info_start",
"Channel : Zn",
"Points : 0",
"Range : 0.000000 - 0.000000",
"Step : 0.010000",
"Channel_info_end",
"Channel_info_start",
"Channel : Sr",
"Points : 0",
"Range : 0.000000 - 0.000000",
"Step : 0.010000",
"Channel_info_end",
"Channel_info_start",
"Channel : Pb",
"Points : 0",
"Range : 0.000000 - 0.000000",
"Step : 0.010000",
"Channel_info_end",
"",
"Qualitative Result",
"--------------------------------------------------------------------------------",
"Element :  P , S , Ca",
"",
"Peak List",
"--------------------------------------------------------------------------------",
"Channel               Line        keV     Net Int.(cps/uA)",
"--------------------------------------------------------------------------------",
"Na                    P Ka         2.02     0.051",
"                      S Ka         2.30     0.652",
"                      S Kb         2.43     0.299",
"                      CaKa         3.68     0.300",
"                      CaKb         4.02     0.037",
"                      ----        17.42     7.161",
"--------------------------------------------------------------------------------",
"",
"Quantitative Result",
"--------------------------------------------------------------------------------",
"Analyte               Result             Std.Dev. Proc.-Calc. Line Intensity(cps/uA)",
"--------------------------------------------------------------------------------",
"====[No. 1 Layer]====< Layer1               >===============================",
"Layer1                   0.000 ug/cm2    -------- Flux       -------- --------",

File: MoO3 31507.20100611022704.csv
"Sample    : MoO3 31507",
"Operator  : Luís",
"Comment  : cubatao-g-policarbonato",
"Group     : kerr2007ag180cal_lt",
"Date       : 2010-06-11 02:23:01",
"",
"Mesurement Condition",
"------------------------------------------------------------------------------------",
"Instrument : 700HS2   Atmosphere : Vac.   Collimator : 10(mm)   Spin : No",
"------------------------------------------------------------------------------------",
"Analyte               TG kV   uA      FI Acq.(keV)  Anal.(keV)  Time(sec)     DT(%)",
"------------------------------------------------------------------------------------",
"Na                    Rh 50  210-Auto Al  0 - 20    0.8 - 1.2   Live -  180   14",
"",
"<Profile>",
"Channel_info_start",
"Channel : Na",
"Points : 2048",
"Range : 0.000000 - 20.48",
"Step : 0.010000",
"Channel_info_end",
"0",
"0",
"0",
"0",
"0",
"36",
"37",
"57",
"72",
"58",
"60",
"42",
"33",
"69",
"41",
"63",
"47",
"51",
"31",
"40",
"40",
"26",
"41",
"25",
"33",
"41",
"34",
"61",
"156",
"241",
"143",
"215",
"1098",
"2120",
"1310",
"815",
"305",
"120",
"67",
"49",
"42",
"46",
"43",
"18",
"23",
"18",
"15",
"16",
"26",
"15",
"32",
"136",
"594",
"853",
"245",
"60",
"68",
"112",
"101",
"44",
"27",
"46",
"38",
"47",
"49",
"53",
"58",
"84",
"51",
"47",
"39",
"55",
"38",
"46",
"50",
"60",
"49",
"55",
"57",
"60",
"64",
"49",
"60",
"59",
"56",
"58",
"63",
"73",
"75",
"95",
"77",
"107",
"78",
"86",
"81",
"108",
"75",
"85",
"75",
"70",
"83",
"117",
"84",
"84",
"94",
"85",
"91",
"74",
"91",
"91",
"70",
"103",
"108",
"110",
"101",
"121",
"101",
"91",
"71",
"91",
"95",
"116",
"120",
"142",
"140",
"99",
"87",
"96",
"91",
"96",
"98",
"88",
"85",
"111",
"92",
"113",
"68",
"78",
"99",
"91",
"64",
"97",
"78",
"75",
"94",
"84",
"81",
"73",
"69",
"91",
"85",
"109",
"87",
"99",
"93",
"94",
"96",
"91",
"78",
"77",
"82",
"78",
"71",
"81",
"70",
"81",
"103",
"80",
"70",
"82",
"87",
"73",
"79",
"66",
"83",
"83",
"85",
"64",
"71",
"68",
"77",
"67",
"84",
"65",
"80",
"73",
"71",
"63",
"72",
"67",
"71",
"81",
"65",
"60",
"58",
"67",
"73",
"72",
"61",
"77",
"65",
"66",
"67",
"63",
"87",
"70",
"66",
"65",
"67",
"71",
"57",
"55",
"55",
"69",
"67",
"59",
"66",
"70",
"61",
"75",
"60",
"59",
"65",
"78",
"59",
"81",
"70",
"59",
"66",
"67",
"71",
"80",
"69",
"68",
"82",
"83",
"102",
"78",
"81",
"89",
"86",
"91",
"121",
"164",
"423",
"1346",
"3584",
"7694",
"11473",
"12753",
"9957",
"6065",
"2599",
"746",
"209",
"78",
"68",
"69",
"72",
"72",
"66",
"71",
"64",
"77",
"84",
"94",
"86",
"116",
"134",
"167",
"206",
"262",
"314",
"331",
"341",
"423",
"556",
"1016",
"1610",
"2217",
"2229",
"1604",
"924",
"587",
"512",
"391",
"384",
"226",
"157",
"74",
"65",
"51",
"40",
"23293",
"Channel_info_start",
"Channel : Mg",
"Points : 0",
"Range : 0.000000 - 0.000000",
"Step : 0.010000",
"Channel_info_end",
"Channel_info_start",
"Channel : Al",
"Points : 0",
"Range : 0.000000 - 0.000000",
"Step : 0.010000",
"Channel_info_end",
"Channel_info_start",
"Channel : Si",
"Points : 0",
"Range : 0.000000 - 0.000000",
"Step : 0.010000",
"Channel_info_end",
"Channel_info_start",
"Channel : P ",
"Points : 0",
"Range : 0.000000 - 0.000000",
"Step : 0.010000",
"Channel_info_end",
"Channel_info_start",
"Channel : S ",
"Points : 0",
"Range : 0.000000 - 0.000000",
"Step : 0.010000",
"Channel_info_end",
"Channel_info_start",
"Channel : Cl",
"Points : 0",
"Range : 0.000000 - 0.000000",
"Step : 0.010000",
"Channel_info_end",
"Channel_info_start",
"Channel : K ",
"Points : 0",
"Range : 0.000000 - 0.000000",
"Step : 0.010000",
"Channel_info_end",
"Channel_info_start",
"Channel : Ca",
"Points : 0",
"Range : 0.000000 - 0.000000",
"Step : 0.010000",
"Channel_info_end",
"Channel_info_start",
"Channel : Ti",
"Points : 0",
"Range : 0.000000 - 0.000000",
"Step : 0.010000",
"Channel_info_end",
"Channel_info_start",
"Channel : V ",
"Points : 0",
"Range : 0.000000 - 0.000000",
"Step : 0.010000",
"Channel_info_end",
"Channel_info_start",
"Channel : Cr",
"Points : 0",
"Range : 0.000000 - 0.000000",
"Step : 0.010000",
"Channel_info_end",
"Channel_info_start",
"Channel : Mn",
"Points : 0",
"Range : 0.000000 - 0.000000",
"Step : 0.010000",
"Channel_info_end",
"Channel_info_start",
"Channel : Fe",
"Points : 0",
"Range : 0.000000 - 0.000000",
"Step : 0.010000",
"Channel_info_end",
"Channel_info_start",
"Channel : Cu",
"Points : 0",
"Range : 0.000000 - 0.000000",
"Step : 0.010000",
"Channel_info_end",
"Channel_info_start",
"Channel : Zn",
"Points : 0",
"Range : 0.000000 - 0.000000",
"Step : 0.010000",
"Channel_info_end",
"Channel_info_start",
"Channel : Sr",
"Points : 0",
"Range : 0.000000 - 0.000000",
"Step : 0.010000",
"Channel_info_end",
"Channel_info_start",
"Channel : Pb",
"Points : 0",
"Range : 0.000000 - 0.000000",
"Step : 0.010000",
"Channel_info_end",
"",
"Qualitative Result",
"--------------------------------------------------------------------------------",
"Element :  P , Mo, Ca",
"",
"Peak List",
"--------------------------------------------------------------------------------",
"Channel               Line        keV     Net Int.(cps/uA)",
"--------------------------------------------------------------------------------",
"Na                    P Ka         2.02     0.055",
"                      MoLa         2.30     0.664",
"                      ----         2.43     0.288",
"                      CaKa         3.70     0.304",
"                      CaKb         4.02     0.042",
"                      MoKa        17.43     7.170",
"                      MoKb        19.57     1.200",
"                      ----        20.01     0.114",
"--------------------------------------------------------------------------------",
"",
"Quantitative Result",
"--------------------------------------------------------------------------------",
"Analyte               Result             Std.Dev. Proc.-Calc. Line Intensity(cps/uA)",
"--------------------------------------------------------------------------------",
"====[No. 1 Layer]====< Layer1               >===============================",
"Layer1                   0.000 ug/cm2    -------- Flux       -------- --------",

File: nacl 15750.20100525200315.csv
"Sample    : nacl 15750",
"Operator  : thiago",
"Comment  : cubatao-g-policarbonato",
"Group     : kerr2007ag180cal_lt",
"Date       : 2010-05-25 19:57:05",
"",
"Mesurement Condition",
"------------------------------------------------------------------------------------",
"Instrument : 700HS2   Atmosphere : Vac.   Collimator : 10(mm)   Spin : No",
"------------------------------------------------------------------------------------",
"Analyte               TG kV   uA      FI Acq.(keV)  Anal.(keV)  Time(sec)     DT(%)",
"------------------------------------------------------------------------------------",
"Na                    Rh 50  802-Auto Al  0 - 20    0.8 - 1.2   Live -  180   15",
"",
"<Profile>",
"Channel_info_start",
"Channel : Na",
"Points : 2048",
"Range : 0.000000 - 20.48",
"Step : 0.010000",
"Channel_info_end",
"0",
"0",
"0",
"0",
"1",
"35",
"36",
"48",
"42",
"54",
"52",
"74",
"216",
"213",
"160",
"271",
"103",
"63",
"48",
"58",
"43",
"61",
"43",
"45",
"42",
"61",
"70",
"79",
"165",
"224",
"121",
"151",
"192",
"270",
"315",
"381",
"2199",
"11826",
"10893",
"2190",
"1327",
"888",
"136",
"43",
"33",
"36",
"38",
"41",
"46",
"51",
"72",
"338",
"1325",
"1710",
"565",
"167",
"173",
"291",
"226",
"98",
"93",
"75",
"89",
"111",
"152",
"160",
"129",
"140",
"122",
"112",
"87",
"116",
"110",
"121",
"125",
"122",
"164",
"164",
"158",
"160",
"154",
"170",
"133",
"146",
"173",
"200",
"221",
"209",
"221",
"221",
"223",
"250",
"246",
"226",
"280",
"261",
"286",
"284",
"286",
"264",
"249",
"252",
"228",
"245",
"259",
"253",
"270",
"258",
"250",
"249",
"261",
"291",
"316",
"319",
"338",
"315",
"354",
"282",
"265",
"284",
"289",
"367",
"414",
"543",
"441",
"367",
"274",
"292",
"302",
"275",
"255",
"304",
"250",
"238",
"278",
"297",
"302",
"291",
"273",
"280",
"237",
"303",
"265",
"303",
"266",
"290",
"296",
"292",
"263",
"275",
"265",
"277",
"261",
"283",
"228",
"272",
"261",
"267",
"269",
"271",
"257",
"284",
"225",
"262",
"264",
"261",
"249",
"245",
"251",
"303",
"242",
"257",
"220",
"238",
"234",
"254",
"252",
"228",
"240",
"232",
"249",
"264",
"244",
"244",
"241",
"245",
"226",
"252",
"240",
"238",
"199",
"247",
"223",
"201",
"212",
"209",
"214",
"202",
"232",
"244",
"215",
"213",
"214",
"242",
"234",
"219",
"189",
"212",
"225",
"200",
"190",
"201",
"212",
"190",
"186",
"201",
"190",
"209",
"194",
"188",
"183",
"199",
"172",
"185",
"162",
"182",
"198",
"166",
"163",
"175",
"153",
"183",
"203",
"191",
"166",
"164",
"189",
"178",
"155",
"152",
"184",
"179",
"158",
"172",
"161",
"175",
"179",
"190",
"155",
"186",
"170",
"175",
"169",
"184",
"162",
"194",
"221",
"154",
"155",
"183",
"202",
"178",
"182",
"233",
"250",
"261",
"269",
"325",
"452",
"528",
"681",
"927",
"1160",
"1062",
"1161",
"1160",
"1026",
"875",
"638",
"533",
"417",
"346",
"244",
"277",
"290",
"398",
"475",
"449",
"432",
"295",
"213",
"170",
"150",
"83000",
"Channel_info_start",
"Channel : Mg",
"Points : 0",
"Range : 0.000000 - 0.000000",
"Step : 0.010000",
"Channel_info_end",
"Channel_info_start",
"Channel : Al",
"Points : 0",
"Range : 0.000000 - 0.000000",
"Step : 0.010000",
"Channel_info_end",
"Channel_info_start",
"Channel : Si",
"Points : 0",
"Range : 0.000000 - 0.000000",
"Step : 0.010000",
"Channel_info_end",
"Channel_info_start",
"Channel : P ",
"Points : 0",
"Range : 0.000000 - 0.000000",
"Step : 0.010000",
"Channel_info_end",
"Channel_info_start",
"Channel : S ",
"Points : 0",
"Range : 0.000000 - 0.000000",
"Step : 0.010000",
"Channel_info_end",
"Channel_info_start",
"Channel : Cl",
"Points : 0",
"Range : 0.000000 - 0.000000",
"Step : 0.010000",
"Channel_info_end",
"Channel_info_start",
"Channel : K ",
"Points : 0",
"Range : 0.000000 - 0.000000",
"Step : 0.010000",
"Channel_info_end",
"Channel_info_start",
"Channel : Ca",
"Points : 0",
"Range : 0.000000 - 0.000000",
"Step : 0.010000",
"Channel_info_end",
"Channel_info_start",
"Channel : Ti",
"Points : 0",
"Range : 0.000000 - 0.000000",
"Step : 0.010000",
"Channel_info_end",
"Channel_info_start",
"Channel : V ",
"Points : 0",
"Range : 0.000000 - 0.000000",
"Step : 0.010000",
"Channel_info_end",
"Channel_info_start",
"Channel : Cr",
"Points : 0",
"Range : 0.000000 - 0.000000",
"Step : 0.010000",
"Channel_info_end",
"Channel_info_start",
"Channel : Mn",
"Points : 0",
"Range : 0.000000 - 0.000000",
"Step : 0.010000",
"Channel_info_end",
"Channel_info_start",
"Channel : Fe",
"Points : 0",
"Range : 0.000000 - 0.000000",
"Step : 0.010000",
"Channel_info_end",
"Channel_info_start",
"Channel : Cu",
"Points : 0",
"Range : 0.000000 - 0.000000",
"Step : 0.010000",
"Channel_info_end",
"Channel_info_start",
"Channel : Zn",
"Points : 0",
"Range : 0.000000 - 0.000000",
"Step : 0.010000",
"Channel_info_end",
"Channel_info_start",
"Channel : Sr",
"Points : 0",
"Range : 0.000000 - 0.000000",
"Step : 0.010000",
"Channel_info_end",
"Channel_info_start",
"Channel : Pb",
"Points : 0",
"Range : 0.000000 - 0.000000",
"Step : 0.010000",
"Channel_info_end",
"",
"Qualitative Result",
"--------------------------------------------------------------------------------",
"Element :  Zn, P , S , Cl, Ca, Rh",
"",
"Peak List",
"--------------------------------------------------------------------------------",
"Channel               Line        keV     Net Int.(cps/uA)",
"--------------------------------------------------------------------------------",
"Na                    ZnLL         0.88     0.017",
"                      ZnLb1        1.03     0.005",
"                      ZnLa         1.06     0.016",
"                      P Ka         2.00     0.011",
"                      S Ka         2.30     0.012",
"                      ClKa         2.62     1.237",
"                      ClKb         2.84     0.103",
"                      CaKa         3.68     0.168",
"                      CaKb         4.00     0.021",
"                      ZnKa         8.61     0.029",
"                      RhKaC       19.15     0.139",
"                      ----        19.42     0.067",
"                      RhKa        20.05     0.043",
"--------------------------------------------------------------------------------",
"",
"Quantitative Result",
"--------------------------------------------------------------------------------",
"Analyte               Result             Std.Dev. Proc.-Calc. Line Intensity(cps/uA)",
"--------------------------------------------------------------------------------",
"====[No. 1 Layer]====< Layer1               >===============================",
"Layer1                   0.000 ug/cm2    -------- Flux       -------- --------",

File: Nb2O3 15763.20100611021902.csv
"Sample    : Nb2O3 15763",
"Operator  : Luís",
"Comment  : cubatao-g-policarbonato",
"Group     : kerr2007ag180cal_lt",
"Date       : 2010-06-11 02:14:59",
"",
"Mesurement Condition",
"------------------------------------------------------------------------------------",
"Instrument : 700HS2   Atmosphere : Vac.   Collimator : 10(mm)   Spin : No",
"------------------------------------------------------------------------------------",
"Analyte               TG kV   uA      FI Acq.(keV)  Anal.(keV)  Time(sec)     DT(%)",
"------------------------------------------------------------------------------------",
"Na                    Rh 50  210-Auto Al  0 - 20    0.8 - 1.2   Live -  179   14",
"",
"<Profile>",
"Channel_info_start",
"Channel : Na",
"Points : 2048",
"Range : 0.000000 - 20.48",
"Step : 0.010000",
"Channel_info_end",
"0",
"0",
"0",
"0",
"0",
"56",
"78",
"67",
"48",
"55",
"48",
"45",
"41",
"52",
"41",
"38",
"42",
"37",
"28",
"27",
"31",
"28",
"25",
"34",
"50",
"73",
"100",
"197",
"221",
"241",
"933",
"2552",
"1783",
"1012",
"340",
"106",
"57",
"33",
"75",
"54",
"32",
"23",
"18",
"18",
"26",
"14",
"20",
"12",
"15",
"19",
"30",
"74",
"320",
"464",
"136",
"51",
"45",
"85",
"56",
"36",
"23",
"32",
"45",
"34",
"47",
"54",
"57",
"53",
"42",
"40",
"33",
"46",
"39",
"45",
"30",
"48",
"54",
"64",
"52",
"51",
"33",
"52",
"46",
"70",
"65",
"64",
"59",
"72",
"66",
"69",
"64",
"85",
"69",
"86",
"64",
"83",
"79",
"89",
"101",
"87",
"79",
"98",
"87",
"85",
"78",
"73",
"85",
"86",
"80",
"92",
"98",
"78",
"90",
"107",
"95",
"124",
"90",
"86",
"76",
"80",
"93",
"100",
"116",
"138",
"117",
"124",
"83",
"111",
"96",
"84",
"79",
"89",
"94",
"82",
"88",
"98",
"115",
"80",
"97",
"79",
"90",
"100",
"80",
"74",
"59",
"102",
"86",
"80",
"78",
"92",
"69",
"70",
"80",
"83",
"70",
"92",
"78",
"76",
"73",
"95",
"78",
"89",
"73",
"87",
"83",
"78",
"71",
"68",
"84",
"78",
"89",
"72",
"76",
"81",
"84",
"62",
"70",
"75",
"69",
"65",
"84",
"59",
"61",
"82",
"67",
"69",
"68",
"87",
"70",
"69",
"78",
"81",
"66",
"54",
"92",
"75",
"69",
"66",
"68",
"71",
"73",
"71",
"70",
"66",
"72",
"57",
"71",
"55",
"64",
"61",
"61",
"66",
"68",
"61",
"56",
"76",
"71",
"78",
"53",
"67",
"67",
"60",
"71",
"95",
"71",
"76",
"76",
"90",
"87",
"104",
"107",
"175",
"476",
"1483",
"4184",
"8783",
"12186",
"12631",
"8755",
"4880",
"1569",
"430",
"135",
"89",
"80",
"70",
"66",
"54",
"72",
"56",
"51",
"70",
"59",
"67",
"54",
"64",
"78",
"81",
"65",
"81",
"88",
"131",
"281",
"811",
"1487",
"2066",
"2076",
"1685",
"1007",
"694",
"568",
"586",
"501",
"391",
"324",
"327",
"261",
"258",
"139",
"135",
"104",
"87",
"66",
"64",
"70",
"115",
"127",
"144",
"120",
"84",
"72",
"43",
"51",
"22757",
"Channel_info_start",
"Channel : Mg",
"Points : 0",
"Range : 0.000000 - 0.000000",
"Step : 0.010000",
"Channel_info_end",
"Channel_info_start",
"Channel : Al",
"Points : 0",
"Range : 0.000000 - 0.000000",
"Step : 0.010000",
"Channel_info_end",
"Channel_info_start",
"Channel : Si",
"Points : 0",
"Range : 0.000000 - 0.000000",
"Step : 0.010000",
"Channel_info_end",
"Channel_info_start",
"Channel : P ",
"Points : 0",
"Range : 0.000000 - 0.000000",
"Step : 0.010000",
"Channel_info_end",
"Channel_info_start",
"Channel : S ",
"Points : 0",
"Range : 0.000000 - 0.000000",
"Step : 0.010000",
"Channel_info_end",
"Channel_info_start",
"Channel : Cl",
"Points : 0",
"Range : 0.000000 - 0.000000",
"Step : 0.010000",
"Channel_info_end",
"Channel_info_start",
"Channel : K ",
"Points : 0",
"Range : 0.000000 - 0.000000",
"Step : 0.010000",
"Channel_info_end",
"Channel_info_start",
"Channel : Ca",
"Points : 0",
"Range : 0.000000 - 0.000000",
"Step : 0.010000",
"Channel_info_end",
"Channel_info_start",
"Channel : Ti",
"Points : 0",
"Range : 0.000000 - 0.000000",
"Step : 0.010000",
"Channel_info_end",
"Channel_info_start",
"Channel : V ",
"Points : 0",
"Range : 0.000000 - 0.000000",
"Step : 0.010000",
"Channel_info_end",
"Channel_info_start",
"Channel : Cr",
"Points : 0",
"Range : 0.000000 - 0.000000",
"Step : 0.010000",
"Channel_info_end",
"Channel_info_start",
"Channel : Mn",
"Points : 0",
"Range : 0.000000 - 0.000000",
"Step : 0.010000",
"Channel_info_end",
"Channel_info_start",
"Channel : Fe",
"Points : 0",
"Range : 0.000000 - 0.000000",
"Step : 0.010000",
"Channel_info_end",
"Channel_info_start",
"Channel : Cu",
"Points : 0",
"Range : 0.000000 - 0.000000",
"Step : 0.010000",
"Channel_info_end",
"Channel_info_start",
"Channel : Zn",
"Points : 0",
"Range : 0.000000 - 0.000000",
"Step : 0.010000",
"Channel_info_end",
"Channel_info_start",
"Channel : Sr",
"Points : 0",
"Range : 0.000000 - 0.000000",
"Step : 0.010000",
"Channel_info_end",
"Channel_info_start",
"Channel : Pb",
"Points : 0",
"Range : 0.000000 - 0.000000",
"Step : 0.010000",
"Channel_info_end",
"",
"Qualitative Result",
"--------------------------------------------------------------------------------",
"Element :  Nb, Ca",
"",
"Peak List",
"--------------------------------------------------------------------------------",
"Channel               Line        keV     Net Int.(cps/uA)",
"--------------------------------------------------------------------------------",
"Na                    ----         0.42     0.016",
"                      ----         1.92     0.051",
"                      NbLa         2.17     0.792",
"                      CaKa         3.68     0.168",
"                      CaKb         4.00     0.021",
"                      NbKa        16.56     7.426",
"                      NbKb        18.56     1.170",
"                      ----        18.97     0.179",
"                      ----        20.04     0.059",
"--------------------------------------------------------------------------------",
"",
"Quantitative Result",
"--------------------------------------------------------------------------------",
"Analyte               Result             Std.Dev. Proc.-Calc. Line Intensity(cps/uA)",
"--------------------------------------------------------------------------------",
"====[No. 1 Layer]====< Layer1               >===============================",
"Layer1                   0.000 ug/cm2    -------- Flux       -------- --------",