Folder: mestrado_ifusp/inputs/edxCalibration/edx_raw/2010-06 (part 13)

File: Sb 31509.20100526003038.csv
"Sample    : Sb 31509",
"Operator  : luisf",
"Comment  : cubatao-g-policarbonato",
"Group     : kerr2007ag180cal_lt",
"Date       : 2010-05-26 00:24:35",
"",
"Mesurement Condition",
"------------------------------------------------------------------------------------",
"Instrument : 700HS2   Atmosphere : Vac.   Collimator : 10(mm)   Spin : No",
"------------------------------------------------------------------------------------",
"Analyte               TG kV   uA      FI Acq.(keV)  Anal.(keV)  Time(sec)     DT(%)",
"------------------------------------------------------------------------------------",
"Na                    Rh 50  360-Auto Al  0 - 20    0.8 - 1.2   Live -  179   15",
"",
"<Profile>",
"Channel_info_start",
"Channel : Na",
"Points : 2048",
"Range : 0.000000 - 20.48",
"Step : 0.010000",
"Channel_info_end",
"0",
"0",
"0",
"0",
"2",
"34",
"35",
"42",
"45",
"47",
"40",
"41",
"37",
"45",
"33",
"51",
"47",
"48",
"38",
"41",
"51",
"58",
"57",
"49",
"50",
"77",
"176",
"224",
"127",
"168",
"164",
"115",
"97",
"61",
"57",
"56",
"45",
"64",
"52",
"82",
"61",
"94",
"95",
"107",
"170",
"552",
"598",
"303",
"290",
"548",
"2284",
"11354",
"11907",
"4055",
"4220",
"8963",
"5936",
"2444",
"1779",
"1742",
"630",
"505",
"930",
"612",
"342",
"625",
"678",
"293",
"102",
"61",
"65",
"70",
"79",
"91",
"106",
"111",
"140",
"95",
"82",
"76",
"56",
"71",
"70",
"109",
"103",
"115",
"137",
"122",
"152",
"156",
"148",
"145",
"135",
"130",
"118",
"132",
"161",
"131",
"142",
"149",
"185",
"163",
"171",
"169",
"187",
"175",
"176",
"191",
"168",
"182",
"156",
"167",
"175",
"179",
"211",
"241",
"155",
"145",
"140",
"182",
"154",
"212",
"189",
"243",
"212",
"183",
"167",
"184",
"212",
"209",
"179",
"210",
"177",
"185",
"189",
"182",
"149",
"146",
"115",
"131",
"134",
"123",
"144",
"150",
"144",
"148",
"148",
"159",
"139",
"151",
"148",
"175",
"180",
"155",
"169",
"175",
"155",
"154",
"146",
"148",
"162",
"149",
"138",
"144",
"155",
"158",
"148",
"144",
"152",
"140",
"143",
"140",
"123",
"132",
"121",
"134",
"149",
"137",
"117",
"146",
"118",
"138",
"117",
"122",
"144",
"135",
"109",
"148",
"133",
"124",
"117",
"123",
"123",
"113",
"110",
"119",
"124",
"130",
"110",
"106",
"115",
"103",
"99",
"102",
"126",
"107",
"99",
"108",
"107",
"85",
"96",
"114",
"109",
"110",
"84",
"79",
"122",
"98",
"98",
"127",
"103",
"103",
"96",
"117",
"99",
"99",
"101",
"97",
"96",
"83",
"95",
"106",
"103",
"82",
"94",
"89",
"93",
"69",
"83",
"78",
"105",
"77",
"85",
"94",
"91",
"98",
"76",
"90",
"86",
"76",
"94",
"81",
"82",
"83",
"86",
"77",
"93",
"106",
"85",
"97",
"101",
"97",
"108",
"107",
"101",
"120",
"124",
"149",
"200",
"252",
"329",
"359",
"480",
"517",
"504",
"574",
"463",
"408",
"301",
"235",
"189",
"164",
"130",
"149",
"177",
"249",
"339",
"418",
"347",
"208",
"119",
"107",
"79",
"121316",
"Channel_info_start",
"Channel : Mg",
"Points : 0",
"Range : 0.000000 - 0.000000",
"Step : 0.010000",
"Channel_info_end",
"Channel_info_start",
"Channel : Al",
"Points : 0",
"Range : 0.000000 - 0.000000",
"Step : 0.010000",
"Channel_info_end",
"Channel_info_start",
"Channel : Si",
"Points : 0",
"Range : 0.000000 - 0.000000",
"Step : 0.010000",
"Channel_info_end",
"Channel_info_start",
"Channel : P ",
"Points : 0",
"Range : 0.000000 - 0.000000",
"Step : 0.010000",
"Channel_info_end",
"Channel_info_start",
"Channel : S ",
"Points : 0",
"Range : 0.000000 - 0.000000",
"Step : 0.010000",
"Channel_info_end",
"Channel_info_start",
"Channel : Cl",
"Points : 0",
"Range : 0.000000 - 0.000000",
"Step : 0.010000",
"Channel_info_end",
"Channel_info_start",
"Channel : K ",
"Points : 0",
"Range : 0.000000 - 0.000000",
"Step : 0.010000",
"Channel_info_end",
"Channel_info_start",
"Channel : Ca",
"Points : 0",
"Range : 0.000000 - 0.000000",
"Step : 0.010000",
"Channel_info_end",
"Channel_info_start",
"Channel : Ti",
"Points : 0",
"Range : 0.000000 - 0.000000",
"Step : 0.010000",
"Channel_info_end",
"Channel_info_start",
"Channel : V ",
"Points : 0",
"Range : 0.000000 - 0.000000",
"Step : 0.010000",
"Channel_info_end",
"Channel_info_start",
"Channel : Cr",
"Points : 0",
"Range : 0.000000 - 0.000000",
"Step : 0.010000",
"Channel_info_end",
"Channel_info_start",
"Channel : Mn",
"Points : 0",
"Range : 0.000000 - 0.000000",
"Step : 0.010000",
"Channel_info_end",
"Channel_info_start",
"Channel : Fe",
"Points : 0",
"Range : 0.000000 - 0.000000",
"Step : 0.010000",
"Channel_info_end",
"Channel_info_start",
"Channel : Cu",
"Points : 0",
"Range : 0.000000 - 0.000000",
"Step : 0.010000",
"Channel_info_end",
"Channel_info_start",
"Channel : Zn",
"Points : 0",
"Range : 0.000000 - 0.000000",
"Step : 0.010000",
"Channel_info_end",
"Channel_info_start",
"Channel : Sr",
"Points : 0",
"Range : 0.000000 - 0.000000",
"Step : 0.010000",
"Channel_info_end",
"Channel_info_start",
"Channel : Pb",
"Points : 0",
"Range : 0.000000 - 0.000000",
"Step : 0.010000",
"Channel_info_end",
"",
"Qualitative Result",
"--------------------------------------------------------------------------------",
"Element :  P , Sb, Te, Ru",
"",
"Peak List",
"--------------------------------------------------------------------------------",
"Channel               Line        keV     Net Int.(cps/uA)",
"--------------------------------------------------------------------------------",
"Na                    ----         1.86     0.030",
"                      P Ka         2.01     0.023",
"                      SbLL         3.20     0.100",
"                      SbLa         3.60     2.851",
"                      SbLb1        3.84     1.454",
"                      TeLa         3.84     0.312",
"                      TeLb4        4.03     0.159",
"                      SbLb2        4.12     0.279",
"                      SbLg1        4.35     0.136",
"                      SbLg2        4.60     0.109",
"                      ----        19.03     0.102",
"                      RuKa        19.25     0.126",
"                      ----        19.94     0.043",
"--------------------------------------------------------------------------------",
"",
"Quantitative Result",
"--------------------------------------------------------------------------------",
"Analyte               Result             Std.Dev. Proc.-Calc. Line Intensity(cps/uA)",
"--------------------------------------------------------------------------------",
"====[No. 1 Layer]====< Layer1               >===============================",
"Layer1                   0.000 ug/cm2    -------- Flux       -------- --------",

File: Sb 31509.20100626142108.csv
"Sample    : Sb 31509",
"Operator  : thiago",
"Comment  : cubatao-g-policarbonato",
"Group     : kerr2007ag180cal_lt",
"Date       : 2010-06-26 14:16:56",
"",
"Mesurement Condition",
"------------------------------------------------------------------------------------",
"Instrument : 700HS2   Atmosphere : Vac.   Collimator : 10(mm)   Spin : No",
"------------------------------------------------------------------------------------",
"Analyte               TG kV   uA      FI Acq.(keV)  Anal.(keV)  Time(sec)     DT(%)",
"------------------------------------------------------------------------------------",
"Na                    Rh 50  360-Auto Al  0 - 20    0.8 - 1.2   Live -  180   15",
"",
"<Profile>",
"Channel_info_start",
"Channel : Na",
"Points : 2048",
"Range : 0.000000 - 20.48",
"Step : 0.010000",
"Channel_info_end",
"0",
"0",
"0",
"0",
"0",
"34",
"47",
"50",
"29",
"53",
"40",
"44",
"47",
"47",
"32",
"48",
"33",
"38",
"40",
"54",
"50",
"74",
"68",
"58",
"63",
"75",
"156",
"193",
"147",
"188",
"143",
"109",
"48",
"68",
"70",
"61",
"62",
"61",
"64",
"81",
"60",
"99",
"69",
"128",
"180",
"525",
"600",
"274",
"304",
"519",
"2123",
"10827",
"12494",
"4210",
"3912",
"8870",
"6256",
"2516",
"1681",
"1811",
"623",
"510",
"966",
"726",
"296",
"600",
"638",
"298",
"83",
"66",
"53",
"58",
"53",
"79",
"88",
"113",
"96",
"94",
"86",
"77",
"83",
"85",
"81",
"91",
"108",
"140",
"152",
"125",
"113",
"143",
"157",
"159",
"147",
"120",
"117",
"118",
"126",
"131",
"132",
"158",
"159",
"164",
"148",
"200",
"169",
"176",
"163",
"192",
"156",
"163",
"184",
"182",
"191",
"188",
"194",
"209",
"185",
"177",
"161",
"174",
"183",
"167",
"186",
"258",
"229",
"188",
"155",
"204",
"188",
"180",
"182",
"187",
"179",
"192",
"176",
"164",
"143",
"144",
"145",
"138",
"124",
"148",
"132",
"149",
"125",
"124",
"130",
"145",
"150",
"166",
"154",
"173",
"192",
"154",
"157",
"151",
"144",
"156",
"138",
"164",
"142",
"147",
"142",
"133",
"152",
"123",
"131",
"166",
"108",
"131",
"131",
"152",
"149",
"148",
"131",
"142",
"149",
"157",
"122",
"127",
"146",
"140",
"123",
"112",
"113",
"108",
"124",
"130",
"105",
"120",
"128",
"124",
"134",
"117",
"121",
"108",
"108",
"120",
"114",
"120",
"103",
"123",
"98",
"110",
"120",
"118",
"108",
"111",
"128",
"120",
"121",
"107",
"111",
"120",
"95",
"93",
"96",
"112",
"93",
"99",
"91",
"81",
"103",
"93",
"95",
"99",
"96",
"85",
"97",
"106",
"83",
"82",
"95",
"79",
"75",
"91",
"83",
"77",
"62",
"75",
"83",
"103",
"89",
"90",
"82",
"66",
"82",
"85",
"100",
"85",
"91",
"89",
"82",
"65",
"81",
"94",
"105",
"72",
"75",
"111",
"95",
"106",
"86",
"100",
"110",
"111",
"131",
"163",
"200",
"237",
"281",
"399",
"445",
"526",
"514",
"522",
"463",
"413",
"340",
"256",
"210",
"193",
"134",
"139",
"183",
"235",
"302",
"358",
"366",
"241",
"148",
"97",
"85",
"122084",
"Channel_info_start",
"Channel : Mg",
"Points : 0",
"Range : 0.000000 - 0.000000",
"Step : 0.010000",
"Channel_info_end",
"Channel_info_start",
"Channel : Al",
"Points : 0",
"Range : 0.000000 - 0.000000",
"Step : 0.010000",
"Channel_info_end",
"Channel_info_start",
"Channel : Si",
"Points : 0",
"Range : 0.000000 - 0.000000",
"Step : 0.010000",
"Channel_info_end",
"Channel_info_start",
"Channel : P ",
"Points : 0",
"Range : 0.000000 - 0.000000",
"Step : 0.010000",
"Channel_info_end",
"Channel_info_start",
"Channel : S ",
"Points : 0",
"Range : 0.000000 - 0.000000",
"Step : 0.010000",
"Channel_info_end",
"Channel_info_start",
"Channel : Cl",
"Points : 0",
"Range : 0.000000 - 0.000000",
"Step : 0.010000",
"Channel_info_end",
"Channel_info_start",
"Channel : K ",
"Points : 0",
"Range : 0.000000 - 0.000000",
"Step : 0.010000",
"Channel_info_end",
"Channel_info_start",
"Channel : Ca",
"Points : 0",
"Range : 0.000000 - 0.000000",
"Step : 0.010000",
"Channel_info_end",
"Channel_info_start",
"Channel : Ti",
"Points : 0",
"Range : 0.000000 - 0.000000",
"Step : 0.010000",
"Channel_info_end",
"Channel_info_start",
"Channel : V ",
"Points : 0",
"Range : 0.000000 - 0.000000",
"Step : 0.010000",
"Channel_info_end",
"Channel_info_start",
"Channel : Cr",
"Points : 0",
"Range : 0.000000 - 0.000000",
"Step : 0.010000",
"Channel_info_end",
"Channel_info_start",
"Channel : Mn",
"Points : 0",
"Range : 0.000000 - 0.000000",
"Step : 0.010000",
"Channel_info_end",
"Channel_info_start",
"Channel : Fe",
"Points : 0",
"Range : 0.000000 - 0.000000",
"Step : 0.010000",
"Channel_info_end",
"Channel_info_start",
"Channel : Cu",
"Points : 0",
"Range : 0.000000 - 0.000000",
"Step : 0.010000",
"Channel_info_end",
"Channel_info_start",
"Channel : Zn",
"Points : 0",
"Range : 0.000000 - 0.000000",
"Step : 0.010000",
"Channel_info_end",
"Channel_info_start",
"Channel : Sr",
"Points : 0",
"Range : 0.000000 - 0.000000",
"Step : 0.010000",
"Channel_info_end",
"Channel_info_start",
"Channel : Pb",
"Points : 0",
"Range : 0.000000 - 0.000000",
"Step : 0.010000",
"Channel_info_end",
"",
"Qualitative Result",
"--------------------------------------------------------------------------------",
"Element :  Sb, P , Zn, Ru",
"",
"Peak List",
"--------------------------------------------------------------------------------",
"Channel               Line        keV     Net Int.(cps/uA)",
"--------------------------------------------------------------------------------",
"Na                    SbLaESC      1.84     0.028",
"                      P Ka         2.04     0.024",
"                      SbLL         3.20     0.103",
"                      SbLa         3.60     2.854",
"                      SbLb1        3.86     1.778",
"                      SbLb2        4.10     0.318",
"                      SbLg1        4.36     0.138",
"                      SbLg2        4.59     0.112",
"                      ZnKa         8.61     0.024",
"                      RuKa        19.20     0.138",
"                      ----        19.49     0.046",
"                      ----        19.96     0.052",
"--------------------------------------------------------------------------------",
"",
"Quantitative Result",
"--------------------------------------------------------------------------------",
"Analyte               Result             Std.Dev. Proc.-Calc. Line Intensity(cps/uA)",
"--------------------------------------------------------------------------------",
"====[No. 1 Layer]====< Layer1               >===============================",
"Layer1                   0.000 ug/cm2    -------- Flux       -------- --------",

File: Se 15759.20100611012223.csv
"Sample    : Se 15759",
"Operator  : Luís",
"Comment  : cubatao-g-policarbonato",
"Group     : kerr2007ag180cal_lt",
"Date       : 2010-06-11 01:18:19",
"",
"Mesurement Condition",
"------------------------------------------------------------------------------------",
"Instrument : 700HS2   Atmosphere : Vac.   Collimator : 10(mm)   Spin : No",
"------------------------------------------------------------------------------------",
"Analyte               TG kV   uA      FI Acq.(keV)  Anal.(keV)  Time(sec)     DT(%)",
"------------------------------------------------------------------------------------",
"Na                    Rh 50  168-Auto Al  0 - 20    0.8 - 1.2   Live -  180   15",
"",
"<Profile>",
"Channel_info_start",
"Channel : Na",
"Points : 2048",
"Range : 0.000000 - 20.48",
"Step : 0.010000",
"Channel_info_end",
"0",
"0",
"0",
"0",
"0",
"28",
"29",
"22",
"23",
"23",
"13",
"26",
"10",
"14",
"9",
"15",
"22",
"68",
"83",
"580",
"1357",
"594",
"105",
"24",
"20",
"23",
"16",
"20",
"29",
"33",
"8",
"10",
"18",
"7",
"8",
"13",
"8",
"9",
"16",
"12",
"18",
"14",
"16",
"7",
"8",
"14",
"5",
"21",
"12",
"13",
"10",
"65",
"266",
"386",
"96",
"37",
"47",
"65",
"39",
"22",
"21",
"29",
"23",
"34",
"34",
"37",
"33",
"38",
"31",
"39",
"26",
"26",
"28",
"38",
"25",
"31",
"37",
"40",
"41",
"34",
"34",
"38",
"38",
"47",
"37",
"36",
"53",
"52",
"46",
"62",
"61",
"64",
"78",
"63",
"53",
"58",
"71",
"61",
"66",
"67",
"87",
"80",
"64",
"64",
"74",
"72",
"81",
"87",
"72",
"65",
"66",
"85",
"74",
"80",
"92",
"99",
"69",
"67",
"59",
"80",
"74",
"60",
"91",
"92",
"109",
"84",
"83",
"83",
"85",
"76",
"65",
"69",
"76",
"88",
"77",
"91",
"91",
"81",
"64",
"85",
"79",
"80",
"68",
"77",
"67",
"75",
"74",
"75",
"97",
"74",
"79",
"96",
"98",
"106",
"106",
"149",
"326",
"1835",
"7393",
"18871",
"24103",
"16748",
"6215",
"1416",
"241",
"121",
"86",
"104",
"86",
"92",
"91",
"93",
"90",
"113",
"154",
"285",
"910",
"2359",
"3347",
"3063",
"1620",
"653",
"231",
"96",
"55",
"58",
"48",
"62",
"39",
"38",
"58",
"47",
"51",
"47",
"54",
"47",
"55",
"42",
"51",
"56",
"59",
"54",
"53",
"55",
"51",
"51",
"38",
"48",
"42",
"51",
"43",
"37",
"42",
"48",
"39",
"33",
"33",
"52",
"48",
"52",
"39",
"37",
"29",
"29",
"53",
"29",
"39",
"39",
"39",
"47",
"24",
"46",
"34",
"31",
"47",
"45",
"45",
"29",
"24",
"36",
"35",
"34",
"43",
"42",
"41",
"39",
"40",
"40",
"37",
"43",
"36",
"33",
"40",
"42",
"24",
"35",
"31",
"46",
"33",
"37",
"49",
"43",
"48",
"47",
"55",
"53",
"59",
"81",
"92",
"114",
"137",
"169",
"219",
"208",
"255",
"242",
"182",
"150",
"144",
"119",
"83",
"65",
"51",
"60",
"73",
"93",
"129",
"110",
"113",
"79",
"51",
"48",
"28",
"19401",
"Channel_info_start",
"Channel : Mg",
"Points : 0",
"Range : 0.000000 - 0.000000",
"Step : 0.010000",
"Channel_info_end",
"Channel_info_start",
"Channel : Al",
"Points : 0",
"Range : 0.000000 - 0.000000",
"Step : 0.010000",
"Channel_info_end",
"Channel_info_start",
"Channel : Si",
"Points : 0",
"Range : 0.000000 - 0.000000",
"Step : 0.010000",
"Channel_info_end",
"Channel_info_start",
"Channel : P ",
"Points : 0",
"Range : 0.000000 - 0.000000",
"Step : 0.010000",
"Channel_info_end",
"Channel_info_start",
"Channel : S ",
"Points : 0",
"Range : 0.000000 - 0.000000",
"Step : 0.010000",
"Channel_info_end",
"Channel_info_start",
"Channel : Cl",
"Points : 0",
"Range : 0.000000 - 0.000000",
"Step : 0.010000",
"Channel_info_end",
"Channel_info_start",
"Channel : K ",
"Points : 0",
"Range : 0.000000 - 0.000000",
"Step : 0.010000",
"Channel_info_end",
"Channel_info_start",
"Channel : Ca",
"Points : 0",
"Range : 0.000000 - 0.000000",
"Step : 0.010000",
"Channel_info_end",
"Channel_info_start",
"Channel : Ti",
"Points : 0",
"Range : 0.000000 - 0.000000",
"Step : 0.010000",
"Channel_info_end",
"Channel_info_start",
"Channel : V ",
"Points : 0",
"Range : 0.000000 - 0.000000",
"Step : 0.010000",
"Channel_info_end",
"Channel_info_start",
"Channel : Cr",
"Points : 0",
"Range : 0.000000 - 0.000000",
"Step : 0.010000",
"Channel_info_end",
"Channel_info_start",
"Channel : Mn",
"Points : 0",
"Range : 0.000000 - 0.000000",
"Step : 0.010000",
"Channel_info_end",
"Channel_info_start",
"Channel : Fe",
"Points : 0",
"Range : 0.000000 - 0.000000",
"Step : 0.010000",
"Channel_info_end",
"Channel_info_start",
"Channel : Cu",
"Points : 0",
"Range : 0.000000 - 0.000000",
"Step : 0.010000",
"Channel_info_end",
"Channel_info_start",
"Channel : Zn",
"Points : 0",
"Range : 0.000000 - 0.000000",
"Step : 0.010000",
"Channel_info_end",
"Channel_info_start",
"Channel : Sr",
"Points : 0",
"Range : 0.000000 - 0.000000",
"Step : 0.010000",
"Channel_info_end",
"Channel_info_start",
"Channel : Pb",
"Points : 0",
"Range : 0.000000 - 0.000000",
"Step : 0.010000",
"Channel_info_end",
"",
"Qualitative Result",
"--------------------------------------------------------------------------------",
"Element :  Se, P , Ca, Ru",
"",
"Peak List",
"--------------------------------------------------------------------------------",
"Channel               Line        keV     Net Int.(cps/uA)",
"--------------------------------------------------------------------------------",
"Na                    ----         1.19     0.019",
"                      SeLa         1.40     0.507",
"                      P Ka         2.01     0.012",
"                      CaKa         3.68     0.178",
"                      CaKb         4.00     0.023",
"                      SeKa        11.20    15.112",
"                      SeKb        12.48     2.239",
"                      RuKa        19.23     0.133",
"                      ----        19.47     0.048",
"                      ----        20.02     0.062",
"--------------------------------------------------------------------------------",
"",
"Quantitative Result",
"--------------------------------------------------------------------------------",
"Analyte               Result             Std.Dev. Proc.-Calc. Line Intensity(cps/uA)",
"--------------------------------------------------------------------------------",
"====[No. 1 Layer]====< Layer1               >===============================",
"Layer1                   0.000 ug/cm2    -------- Flux       -------- --------",

File: SeF2 15754.20100610235218.csv
"Sample    : SeF2 15754",
"Operator  : thiago",
"Comment  : cubatao-g-policarbonato",
"Group     : kerr2007ag180cal_lt",
"Date       : 2010-06-10 23:48:03",
"",
"Mesurement Condition",
"------------------------------------------------------------------------------------",
"Instrument : 700HS2   Atmosphere : Vac.   Collimator : 10(mm)   Spin : No",
"------------------------------------------------------------------------------------",
"Analyte               TG kV   uA      FI Acq.(keV)  Anal.(keV)  Time(sec)     DT(%)",
"------------------------------------------------------------------------------------",
"Na                    Rh 50  596-Auto Al  0 - 20    0.8 - 1.2   Live -  180   16",
"",
"<Profile>",
"Channel_info_start",
"Channel : Na",
"Points : 2048",
"Range : 0.000000 - 20.48",
"Step : 0.010000",
"Channel_info_end",
"0",
"0",
"0",
"0",
"0",
"27",
"33",
"36",
"39",
"34",
"28",
"36",
"24",
"44",
"34",
"26",
"33",
"21",
"27",
"35",
"22",
"41",
"26",
"37",
"49",
"57",
"41",
"57",
"101",
"136",
"48",
"41",
"71",
"198",
"207",
"59",
"37",
"33",
"61",
"65",
"55",
"36",
"50",
"50",
"42",
"64",
"73",
"126",
"113",
"104",
"145",
"344",
"1023",
"1382",
"505",
"329",
"691",
"6584",
"22596",
"20775",
"3935",
"389",
"594",
"2619",
"3291",
"1228",
"196",
"103",
"94",
"94",
"71",
"82",
"99",
"77",
"99",
"88",
"104",
"116",
"101",
"102",
"114",
"126",
"107",
"130",
"127",
"139",
"138",
"141",
"135",
"166",
"160",
"220",
"189",
"158",
"164",
"201",
"203",
"196",
"163",
"214",
"204",
"206",
"183",
"176",
"197",
"195",
"194",
"219",
"150",
"169",
"192",
"208",
"231",
"242",
"235",
"286",
"287",
"281",
"235",
"208",
"174",
"266",
"284",
"321",
"324",
"267",
"240",
"233",
"231",
"205",
"185",
"209",
"220",
"230",
"224",
"210",
"234",
"235",
"217",
"206",
"180",
"173",
"206",
"196",
"196",
"177",
"188",
"185",
"192",
"203",
"193",
"205",
"203",
"208",
"187",
"193",
"181",
"193",
"159",
"174",
"204",
"206",
"143",
"183",
"176",
"194",
"174",
"206",
"195",
"201",
"215",
"181",
"174",
"184",
"169",
"220",
"156",
"178",
"166",
"191",
"180",
"184",
"147",
"192",
"188",
"176",
"170",
"169",
"193",
"157",
"169",
"156",
"150",
"165",
"163",
"172",
"184",
"158",
"168",
"148",
"154",
"150",
"138",
"165",
"136",
"157",
"164",
"161",
"150",
"152",
"128",
"158",
"129",
"133",
"141",
"135",
"158",
"128",
"165",
"154",
"134",
"151",
"158",
"145",
"150",
"149",
"136",
"130",
"154",
"134",
"140",
"142",
"130",
"122",
"129",
"116",
"119",
"134",
"140",
"130",
"127",
"136",
"103",
"131",
"141",
"126",
"108",
"130",
"119",
"114",
"135",
"130",
"125",
"141",
"122",
"112",
"118",
"129",
"140",
"152",
"128",
"166",
"133",
"187",
"180",
"206",
"206",
"262",
"327",
"428",
"517",
"663",
"842",
"828",
"820",
"878",
"781",
"610",
"515",
"384",
"311",
"226",
"191",
"189",
"246",
"279",
"394",
"359",
"370",
"208",
"156",
"122",
"102",
"59954",
"Channel_info_start",
"Channel : Mg",
"Points : 0",
"Range : 0.000000 - 0.000000",
"Step : 0.010000",
"Channel_info_end",
"Channel_info_start",
"Channel : Al",
"Points : 0",
"Range : 0.000000 - 0.000000",
"Step : 0.010000",
"Channel_info_end",
"Channel_info_start",
"Channel : Si",
"Points : 0",
"Range : 0.000000 - 0.000000",
"Step : 0.010000",
"Channel_info_end",
"Channel_info_start",
"Channel : P ",
"Points : 0",
"Range : 0.000000 - 0.000000",
"Step : 0.010000",
"Channel_info_end",
"Channel_info_start",
"Channel : S ",
"Points : 0",
"Range : 0.000000 - 0.000000",
"Step : 0.010000",
"Channel_info_end",
"Channel_info_start",
"Channel : Cl",
"Points : 0",
"Range : 0.000000 - 0.000000",
"Step : 0.010000",
"Channel_info_end",
"Channel_info_start",
"Channel : K ",
"Points : 0",
"Range : 0.000000 - 0.000000",
"Step : 0.010000",
"Channel_info_end",
"Channel_info_start",
"Channel : Ca",
"Points : 0",
"Range : 0.000000 - 0.000000",
"Step : 0.010000",
"Channel_info_end",
"Channel_info_start",
"Channel : Ti",
"Points : 0",
"Range : 0.000000 - 0.000000",
"Step : 0.010000",
"Channel_info_end",
"Channel_info_start",
"Channel : V ",
"Points : 0",
"Range : 0.000000 - 0.000000",
"Step : 0.010000",
"Channel_info_end",
"Channel_info_start",
"Channel : Cr",
"Points : 0",
"Range : 0.000000 - 0.000000",
"Step : 0.010000",
"Channel_info_end",
"Channel_info_start",
"Channel : Mn",
"Points : 0",
"Range : 0.000000 - 0.000000",
"Step : 0.010000",
"Channel_info_end",
"Channel_info_start",
"Channel : Fe",
"Points : 0",
"Range : 0.000000 - 0.000000",
"Step : 0.010000",
"Channel_info_end",
"Channel_info_start",
"Channel : Cu",
"Points : 0",
"Range : 0.000000 - 0.000000",
"Step : 0.010000",
"Channel_info_end",
"Channel_info_start",
"Channel : Zn",
"Points : 0",
"Range : 0.000000 - 0.000000",
"Step : 0.010000",
"Channel_info_end",
"Channel_info_start",
"Channel : Sr",
"Points : 0",
"Range : 0.000000 - 0.000000",
"Step : 0.010000",
"Channel_info_end",
"Channel_info_start",
"Channel : Pb",
"Points : 0",
"Range : 0.000000 - 0.000000",
"Step : 0.010000",
"Channel_info_end",
"",
"Qualitative Result",
"--------------------------------------------------------------------------------",
"Element :  P , Sc, Ca, Zn",
"",
"Peak List",
"--------------------------------------------------------------------------------",
"Channel               Line        keV     Net Int.(cps/uA)",
"--------------------------------------------------------------------------------",
"Na                    P Ka         2.00     0.013",
"                      ScKaESC      2.34     0.029",
"                      CaKa         3.68     0.173",
"                      CaKb         4.01     0.024",
"                      ScKa         4.08     3.433",
"                      ScKb         4.46     0.442",
"                      ZnKa         8.64     0.020",
"                      ----        19.12     0.133",
"                      ----        19.52     0.033",
"                      ----        20.03     0.052",
"--------------------------------------------------------------------------------",
"",
"Quantitative Result",
"--------------------------------------------------------------------------------",
"Analyte               Result             Std.Dev. Proc.-Calc. Line Intensity(cps/uA)",
"--------------------------------------------------------------------------------",
"====[No. 1 Layer]====< Layer1               >===============================",
"Layer1                   0.000 ug/cm2    -------- Flux       -------- --------",