Folder: mestrado_ifusp/inputs/edxCalibration/edx_raw/2010-06

Note: README.md
Mestrado realizado no IFUSP 2010-2016 (com break no meio).

mkdir ~/texmf/bibtex/bst/
texhash ~/texmf/
kpsewhich your-bibtex-file.bst

/usr/share/texlive/texmf-dist/bibtex/bst/base/apalike.bst
linha 851

File: 15766 CdSe.20100626141246.csv
"Sample    : 15766 CdSe",
"Operator  : thiago",
"Comment  : cubatao-g-policarbonato",
"Group     : kerr2007ag180cal_lt",
"Date       : 2010-06-26 14:08:44",
"",
"Mesurement Condition",
"------------------------------------------------------------------------------------",
"Instrument : 700HS2   Atmosphere : Vac.   Collimator : 10(mm)   Spin : No",
"------------------------------------------------------------------------------------",
"Analyte               TG kV   uA      FI Acq.(keV)  Anal.(keV)  Time(sec)     DT(%)",
"------------------------------------------------------------------------------------",
"Na                    Rh 50  237-Auto Al  0 - 20    0.8 - 1.2   Live -  179   14",
"",
"<Profile>",
"Channel_info_start",
"Channel : Na",
"Points : 2048",
"Range : 0.000000 - 20.48",
"Step : 0.010000",
"Channel_info_end",
"0",
"0",
"0",
"0",
"0",
"31",
"23",
"43",
"25",
"33",
"16",
"19",
"16",
"27",
"32",
"41",
"25",
"53",
"70",
"306",
"765",
"404",
"87",
"60",
"56",
"46",
"36",
"38",
"58",
"87",
"41",
"35",
"44",
"40",
"32",
"31",
"31",
"43",
"76",
"181",
"219",
"137",
"148",
"328",
"2116",
"3955",
"1425",
"1774",
"1844",
"872",
"481",
"482",
"507",
"734",
"294",
"96",
"137",
"174",
"69",
"44",
"32",
"40",
"37",
"32",
"33",
"55",
"44",
"46",
"42",
"43",
"41",
"41",
"36",
"52",
"38",
"45",
"45",
"79",
"54",
"71",
"54",
"65",
"68",
"69",
"84",
"76",
"87",
"93",
"91",
"84",
"105",
"94",
"86",
"98",
"87",
"107",
"76",
"101",
"94",
"107",
"97",
"73",
"91",
"96",
"82",
"106",
"109",
"101",
"101",
"106",
"98",
"107",
"103",
"115",
"117",
"149",
"128",
"81",
"103",
"91",
"90",
"121",
"130",
"179",
"150",
"122",
"121",
"97",
"73",
"99",
"76",
"117",
"100",
"94",
"109",
"138",
"126",
"121",
"91",
"108",
"81",
"119",
"105",
"110",
"96",
"86",
"77",
"124",
"108",
"107",
"99",
"109",
"94",
"106",
"128",
"137",
"175",
"807",
"3432",
"9315",
"13402",
"10676",
"4575",
"1118",
"221",
"114",
"93",
"114",
"107",
"121",
"103",
"111",
"121",
"121",
"131",
"182",
"465",
"1156",
"1884",
"1944",
"1223",
"477",
"217",
"111",
"76",
"95",
"71",
"81",
"72",
"80",
"72",
"71",
"71",
"71",
"77",
"72",
"58",
"65",
"63",
"68",
"69",
"67",
"68",
"79",
"74",
"60",
"67",
"49",
"60",
"67",
"70",
"83",
"76",
"77",
"68",
"59",
"56",
"85",
"68",
"58",
"65",
"60",
"37",
"66",
"68",
"54",
"55",
"42",
"56",
"64",
"54",
"53",
"60",
"54",
"54",
"43",
"59",
"64",
"53",
"62",
"57",
"56",
"52",
"46",
"58",
"62",
"55",
"66",
"58",
"74",
"54",
"62",
"52",
"56",
"58",
"63",
"63",
"42",
"52",
"53",
"63",
"69",
"58",
"66",
"77",
"65",
"92",
"110",
"111",
"150",
"201",
"245",
"271",
"336",
"354",
"359",
"318",
"273",
"212",
"172",
"135",
"97",
"90",
"85",
"112",
"145",
"191",
"219",
"210",
"131",
"77",
"55",
"64",
"83529",
"Channel_info_start",
"Channel : Mg",
"Points : 0",
"Range : 0.000000 - 0.000000",
"Step : 0.010000",
"Channel_info_end",
"Channel_info_start",
"Channel : Al",
"Points : 0",
"Range : 0.000000 - 0.000000",
"Step : 0.010000",
"Channel_info_end",
"Channel_info_start",
"Channel : Si",
"Points : 0",
"Range : 0.000000 - 0.000000",
"Step : 0.010000",
"Channel_info_end",
"Channel_info_start",
"Channel : P ",
"Points : 0",
"Range : 0.000000 - 0.000000",
"Step : 0.010000",
"Channel_info_end",
"Channel_info_start",
"Channel : S ",
"Points : 0",
"Range : 0.000000 - 0.000000",
"Step : 0.010000",
"Channel_info_end",
"Channel_info_start",
"Channel : Cl",
"Points : 0",
"Range : 0.000000 - 0.000000",
"Step : 0.010000",
"Channel_info_end",
"Channel_info_start",
"Channel : K ",
"Points : 0",
"Range : 0.000000 - 0.000000",
"Step : 0.010000",
"Channel_info_end",
"Channel_info_start",
"Channel : Ca",
"Points : 0",
"Range : 0.000000 - 0.000000",
"Step : 0.010000",
"Channel_info_end",
"Channel_info_start",
"Channel : Ti",
"Points : 0",
"Range : 0.000000 - 0.000000",
"Step : 0.010000",
"Channel_info_end",
"Channel_info_start",
"Channel : V ",
"Points : 0",
"Range : 0.000000 - 0.000000",
"Step : 0.010000",
"Channel_info_end",
"Channel_info_start",
"Channel : Cr",
"Points : 0",
"Range : 0.000000 - 0.000000",
"Step : 0.010000",
"Channel_info_end",
"Channel_info_start",
"Channel : Mn",
"Points : 0",
"Range : 0.000000 - 0.000000",
"Step : 0.010000",
"Channel_info_end",
"Channel_info_start",
"Channel : Fe",
"Points : 0",
"Range : 0.000000 - 0.000000",
"Step : 0.010000",
"Channel_info_end",
"Channel_info_start",
"Channel : Cu",
"Points : 0",
"Range : 0.000000 - 0.000000",
"Step : 0.010000",
"Channel_info_end",
"Channel_info_start",
"Channel : Zn",
"Points : 0",
"Range : 0.000000 - 0.000000",
"Step : 0.010000",
"Channel_info_end",
"Channel_info_start",
"Channel : Sr",
"Points : 0",
"Range : 0.000000 - 0.000000",
"Step : 0.010000",
"Channel_info_end",
"Channel_info_start",
"Channel : Pb",
"Points : 0",
"Range : 0.000000 - 0.000000",
"Step : 0.010000",
"Channel_info_end",
"",
"Qualitative Result",
"--------------------------------------------------------------------------------",
"Element :  Se, P , Cd, Ca, Zn, Rh",
"",
"Peak List",
"--------------------------------------------------------------------------------",
"Channel               Line        keV     Net Int.(cps/uA)",
"--------------------------------------------------------------------------------",
"Na                    SeLa         1.40     0.203",
"                      P Ka         2.02     0.011",
"                      CdLL         2.76     0.041",
"                      CdLa         3.14     1.177",
"                      CdLb1        3.32     0.610",
"                      CdLb2        3.55     0.108",
"                      CdLg1        3.71     0.059",
"                      CaKa         3.71     0.131",
"                      CdLg2        3.97     0.038",
"                      ZnKa         8.61     0.030",
"                      SeKa        11.20     5.985",
"                      SeKb        12.48     0.903",
"                      RhKaC       19.28     0.138",
"                      RhKa        20.14     0.074",
"--------------------------------------------------------------------------------",
"",
"Quantitative Result",
"--------------------------------------------------------------------------------",
"Analyte               Result             Std.Dev. Proc.-Calc. Line Intensity(cps/uA)",
"--------------------------------------------------------------------------------",
"====[No. 1 Layer]====< Layer1               >===============================",
"Layer1                   0.000 ug/cm2    -------- Flux       -------- --------",

File: Au 15771.20100526013004.csv
"Sample    : Au 15771",
"Operator  : luisf",
"Comment  : cubatao-g-policarbonato",
"Group     : kerr2007ag180cal_lt",
"Date       : 2010-05-26 01:25:59",
"",
"Mesurement Condition",
"------------------------------------------------------------------------------------",
"Instrument : 700HS2   Atmosphere : Vac.   Collimator : 10(mm)   Spin : No",
"------------------------------------------------------------------------------------",
"Analyte               TG kV   uA      FI Acq.(keV)  Anal.(keV)  Time(sec)     DT(%)",
"------------------------------------------------------------------------------------",
"Na                    Rh 50  187-Auto Al  0 - 20    0.8 - 1.2   Live -  179   16",
"",
"<Profile>",
"Channel_info_start",
"Channel : Na",
"Points : 2048",
"Range : 0.000000 - 20.48",
"Step : 0.010000",
"Channel_info_end",
"0",
"0",
"0",
"0",
"0",
"72",
"101",
"83",
"38",
"26",
"24",
"26",
"27",
"25",
"35",
"33",
"35",
"29",
"22",
"33",
"28",
"36",
"59",
"180",
"316",
"169",
"130",
"238",
"326",
"736",
"2927",
"4410",
"2592",
"528",
"335",
"341",
"88",
"39",
"53",
"103",
"184",
"99",
"36",
"20",
"16",
"37",
"24",
"20",
"23",
"28",
"28",
"86",
"246",
"386",
"133",
"56",
"53",
"68",
"62",
"19",
"12",
"23",
"31",
"28",
"28",
"47",
"40",
"35",
"43",
"29",
"36",
"38",
"23",
"46",
"38",
"48",
"70",
"84",
"75",
"61",
"56",
"57",
"47",
"60",
"40",
"53",
"71",
"96",
"100",
"138",
"171",
"176",
"170",
"166",
"140",
"151",
"120",
"124",
"72",
"88",
"67",
"87",
"65",
"79",
"75",
"93",
"76",
"117",
"81",
"88",
"69",
"77",
"97",
"108",
"111",
"126",
"131",
"135",
"130",
"255",
"509",
"814",
"706",
"441",
"219",
"142",
"107",
"112",
"105",
"115",
"121",
"129",
"131",
"156",
"177",
"394",
"1538",
"5549",
"10843",
"12133",
"6535",
"1888",
"349",
"158",
"155",
"140",
"186",
"301",
"200",
"134",
"115",
"120",
"122",
"104",
"92",
"92",
"151",
"196",
"332",
"712",
"911",
"1608",
"3513",
"6358",
"6655",
"5221",
"3221",
"1741",
"682",
"375",
"323",
"318",
"189",
"131",
"94",
"96",
"91",
"77",
"73",
"80",
"89",
"93",
"79",
"89",
"105",
"134",
"97",
"115",
"162",
"453",
"896",
"1196",
"942",
"517",
"314",
"354",
"398",
"342",
"230",
"146",
"84",
"85",
"92",
"99",
"119",
"85",
"80",
"57",
"79",
"64",
"71",
"59",
"53",
"68",
"48",
"48",
"64",
"48",
"57",
"56",
"60",
"62",
"56",
"52",
"60",
"59",
"51",
"59",
"56",
"55",
"70",
"64",
"56",
"43",
"41",
"53",
"62",
"51",
"58",
"51",
"50",
"68",
"43",
"62",
"48",
"59",
"52",
"46",
"49",
"53",
"48",
"55",
"52",
"46",
"53",
"47",
"52",
"45",
"56",
"39",
"52",
"48",
"61",
"63",
"59",
"69",
"62",
"88",
"84",
"109",
"150",
"201",
"249",
"290",
"300",
"267",
"235",
"193",
"168",
"126",
"119",
"85",
"77",
"79",
"112",
"176",
"228",
"260",
"259",
"166",
"88",
"53",
"41",
"23619",
"Channel_info_start",
"Channel : Mg",
"Points : 0",
"Range : 0.000000 - 0.000000",
"Step : 0.010000",
"Channel_info_end",
"Channel_info_start",
"Channel : Al",
"Points : 0",
"Range : 0.000000 - 0.000000",
"Step : 0.010000",
"Channel_info_end",
"Channel_info_start",
"Channel : Si",
"Points : 0",
"Range : 0.000000 - 0.000000",
"Step : 0.010000",
"Channel_info_end",
"Channel_info_start",
"Channel : P ",
"Points : 0",
"Range : 0.000000 - 0.000000",
"Step : 0.010000",
"Channel_info_end",
"Channel_info_start",
"Channel : S ",
"Points : 0",
"Range : 0.000000 - 0.000000",
"Step : 0.010000",
"Channel_info_end",
"Channel_info_start",
"Channel : Cl",
"Points : 0",
"Range : 0.000000 - 0.000000",
"Step : 0.010000",
"Channel_info_end",
"Channel_info_start",
"Channel : K ",
"Points : 0",
"Range : 0.000000 - 0.000000",
"Step : 0.010000",
"Channel_info_end",
"Channel_info_start",
"Channel : Ca",
"Points : 0",
"Range : 0.000000 - 0.000000",
"Step : 0.010000",
"Channel_info_end",
"Channel_info_start",
"Channel : Ti",
"Points : 0",
"Range : 0.000000 - 0.000000",
"Step : 0.010000",
"Channel_info_end",
"Channel_info_start",
"Channel : V ",
"Points : 0",
"Range : 0.000000 - 0.000000",
"Step : 0.010000",
"Channel_info_end",
"Channel_info_start",
"Channel : Cr",
"Points : 0",
"Range : 0.000000 - 0.000000",
"Step : 0.010000",
"Channel_info_end",
"Channel_info_start",
"Channel : Mn",
"Points : 0",
"Range : 0.000000 - 0.000000",
"Step : 0.010000",
"Channel_info_end",
"Channel_info_start",
"Channel : Fe",
"Points : 0",
"Range : 0.000000 - 0.000000",
"Step : 0.010000",
"Channel_info_end",
"Channel_info_start",
"Channel : Cu",
"Points : 0",
"Range : 0.000000 - 0.000000",
"Step : 0.010000",
"Channel_info_end",
"Channel_info_start",
"Channel : Zn",
"Points : 0",
"Range : 0.000000 - 0.000000",
"Step : 0.010000",
"Channel_info_end",
"Channel_info_start",
"Channel : Sr",
"Points : 0",
"Range : 0.000000 - 0.000000",
"Step : 0.010000",
"Channel_info_end",
"Channel_info_start",
"Channel : Pb",
"Points : 0",
"Range : 0.000000 - 0.000000",
"Step : 0.010000",
"Channel_info_end",
"",
"Qualitative Result",
"--------------------------------------------------------------------------------",
"Element :  Sc, Rb, Au, Ca, Ru",
"",
"Peak List",
"--------------------------------------------------------------------------------",
"Channel               Line        keV     Net Int.(cps/uA)",
"--------------------------------------------------------------------------------",
"Na                    ScLa         0.40     0.016",
"                      RbLa         1.66     0.092",
"                      AuMa         2.16     1.557",
"                      ----         2.43     0.126",
"                      ----         2.79     0.055",
"                      CaKa         3.69     0.161",
"                      CaKb         4.02     0.027",
"                      ----         5.48     0.020",
"                      ----         6.21     0.040",
"                      ----         6.49     0.057",
"                      ----         6.64     0.039",
"                      AuLL         8.51     0.381",
"                      AuLa         9.70     6.695",
"                      ----        10.29     0.090",
"                      AuLb4       11.13     0.243",
"                      AuLb1       11.44     3.667",
"                      AuLg1       13.36     0.632",
"                      AuLg2       13.72     0.174",
"                      RuKa        19.21     0.136",
"                      AuLaSUM     19.45     0.066",
"                      ----        20.00     0.120",
"--------------------------------------------------------------------------------",
"",
"Quantitative Result",
"--------------------------------------------------------------------------------",
"Analyte               Result             Std.Dev. Proc.-Calc. Line Intensity(cps/uA)",
"--------------------------------------------------------------------------------",
"====[No. 1 Layer]====< Layer1               >===============================",
"Layer1                   0.000 ug/cm2    -------- Flux       -------- --------",

File: Au 15771.20100611041943.csv
"Sample    : Au 15771",
"Operator  : Luís",
"Comment  : cubatao-g-policarbonato",
"Group     : kerr2007ag180cal_lt",
"Date       : 2010-06-11 04:15:41",
"",
"Mesurement Condition",
"------------------------------------------------------------------------------------",
"Instrument : 700HS2   Atmosphere : Vac.   Collimator : 10(mm)   Spin : No",
"------------------------------------------------------------------------------------",
"Analyte               TG kV   uA      FI Acq.(keV)  Anal.(keV)  Time(sec)     DT(%)",
"------------------------------------------------------------------------------------",
"Na                    Rh 50  168-Auto Al  0 - 20    0.8 - 1.2   Live -  179   14",
"",
"<Profile>",
"Channel_info_start",
"Channel : Na",
"Points : 2048",
"Range : 0.000000 - 20.48",
"Step : 0.010000",
"Channel_info_end",
"0",
"0",
"0",
"0",
"0",
"90",
"112",
"74",
"29",
"34",
"28",
"24",
"31",
"26",
"28",
"27",
"30",
"14",
"21",
"28",
"24",
"40",
"40",
"191",
"277",
"160",
"129",
"170",
"293",
"646",
"2640",
"3858",
"2222",
"507",
"317",
"335",
"90",
"31",
"58",
"112",
"140",
"100",
"42",
"15",
"23",
"19",
"24",
"29",
"27",
"22",
"34",
"72",
"250",
"369",
"116",
"35",
"40",
"64",
"45",
"22",
"17",
"21",
"16",
"36",
"40",
"32",
"44",
"31",
"27",
"27",
"15",
"31",
"36",
"39",
"34",
"57",
"61",
"71",
"59",
"78",
"49",
"50",
"41",
"44",
"53",
"53",
"55",
"77",
"112",
"131",
"137",
"172",
"184",
"135",
"117",
"117",
"90",
"109",
"78",
"74",
"67",
"79",
"64",
"55",
"61",
"65",
"67",
"70",
"81",
"70",
"68",
"79",
"83",
"100",
"116",
"132",
"122",
"98",
"124",
"213",
"471",
"751",
"637",
"383",
"198",
"123",
"117",
"105",
"95",
"91",
"120",
"110",
"107",
"130",
"181",
"408",
"1527",
"5022",
"10113",
"10655",
"5506",
"1559",
"303",
"132",
"130",
"127",
"199",
"255",
"187",
"123",
"93",
"103",
"84",
"92",
"84",
"125",
"114",
"154",
"313",
"574",
"820",
"1514",
"3326",
"5679",
"5800",
"4465",
"2831",
"1471",
"532",
"332",
"291",
"267",
"178",
"114",
"96",
"75",
"79",
"72",
"75",
"75",
"66",
"51",
"77",
"76",
"96",
"120",
"107",
"117",
"171",
"484",
"792",
"1075",
"778",
"407",
"275",
"333",
"368",
"316",
"193",
"120",
"79",
"77",
"70",
"77",
"96",
"87",
"69",
"65",
"57",
"55",
"62",
"47",
"56",
"62",
"50",
"54",
"49",
"51",
"45",
"47",
"42",
"42",
"27",
"40",
"57",
"53",
"54",
"41",
"57",
"65",
"53",
"48",
"45",
"48",
"43",
"41",
"40",
"47",
"44",
"52",
"44",
"39",
"43",
"55",
"41",
"35",
"47",
"43",
"39",
"35",
"41",
"40",
"58",
"44",
"43",
"54",
"42",
"36",
"50",
"44",
"43",
"45",
"41",
"44",
"50",
"63",
"54",
"63",
"109",
"125",
"143",
"180",
"208",
"262",
"237",
"273",
"244",
"216",
"137",
"130",
"83",
"91",
"79",
"70",
"122",
"172",
"216",
"237",
"223",
"129",
"65",
"54",
"39",
"20733",
"Channel_info_start",
"Channel : Mg",
"Points : 0",
"Range : 0.000000 - 0.000000",
"Step : 0.010000",
"Channel_info_end",
"Channel_info_start",
"Channel : Al",
"Points : 0",
"Range : 0.000000 - 0.000000",
"Step : 0.010000",
"Channel_info_end",
"Channel_info_start",
"Channel : Si",
"Points : 0",
"Range : 0.000000 - 0.000000",
"Step : 0.010000",
"Channel_info_end",
"Channel_info_start",
"Channel : P ",
"Points : 0",
"Range : 0.000000 - 0.000000",
"Step : 0.010000",
"Channel_info_end",
"Channel_info_start",
"Channel : S ",
"Points : 0",
"Range : 0.000000 - 0.000000",
"Step : 0.010000",
"Channel_info_end",
"Channel_info_start",
"Channel : Cl",
"Points : 0",
"Range : 0.000000 - 0.000000",
"Step : 0.010000",
"Channel_info_end",
"Channel_info_start",
"Channel : K ",
"Points : 0",
"Range : 0.000000 - 0.000000",
"Step : 0.010000",
"Channel_info_end",
"Channel_info_start",
"Channel : Ca",
"Points : 0",
"Range : 0.000000 - 0.000000",
"Step : 0.010000",
"Channel_info_end",
"Channel_info_start",
"Channel : Ti",
"Points : 0",
"Range : 0.000000 - 0.000000",
"Step : 0.010000",
"Channel_info_end",
"Channel_info_start",
"Channel : V ",
"Points : 0",
"Range : 0.000000 - 0.000000",
"Step : 0.010000",
"Channel_info_end",
"Channel_info_start",
"Channel : Cr",
"Points : 0",
"Range : 0.000000 - 0.000000",
"Step : 0.010000",
"Channel_info_end",
"Channel_info_start",
"Channel : Mn",
"Points : 0",
"Range : 0.000000 - 0.000000",
"Step : 0.010000",
"Channel_info_end",
"Channel_info_start",
"Channel : Fe",
"Points : 0",
"Range : 0.000000 - 0.000000",
"Step : 0.010000",
"Channel_info_end",
"Channel_info_start",
"Channel : Cu",
"Points : 0",
"Range : 0.000000 - 0.000000",
"Step : 0.010000",
"Channel_info_end",
"Channel_info_start",
"Channel : Zn",
"Points : 0",
"Range : 0.000000 - 0.000000",
"Step : 0.010000",
"Channel_info_end",
"Channel_info_start",
"Channel : Sr",
"Points : 0",
"Range : 0.000000 - 0.000000",
"Step : 0.010000",
"Channel_info_end",
"Channel_info_start",
"Channel : Pb",
"Points : 0",
"Range : 0.000000 - 0.000000",
"Step : 0.010000",
"Channel_info_end",
"",
"Qualitative Result",
"--------------------------------------------------------------------------------",
"Element :  Rb, Au, Ca, W , Ru",
"",
"Peak List",
"--------------------------------------------------------------------------------",
"Channel               Line        keV     Net Int.(cps/uA)",
"--------------------------------------------------------------------------------",
"Na                    RbLa         1.67     0.094",
"                      ----         1.93     0.065",
"                      AuMa         2.15     1.493",
"                      ----         2.43     0.103",
"                      ----         2.78     0.059",
"                      CaKa         3.68     0.159",
"                      CaKb         4.03     0.024",
"                      ----         6.18     0.031",
"                      ----         6.44     0.062",
"                      AuLL         8.49     0.201",
"                      W La         8.49     0.175",
"                      W Lb1        9.67     0.140",
"                      AuLa         9.69     6.703",
"                      ----        10.28     0.083",
"                      AuLb4       11.13     0.215",
"                      AuLb1       11.44     3.649",
"                      AuLg1       13.36     0.661",
"                      AuLg2       13.73     0.197",
"                      RuKa        19.20     0.145",
"                      ----        20.00     0.130",
"--------------------------------------------------------------------------------",
"",
"Quantitative Result",
"--------------------------------------------------------------------------------",
"Analyte               Result             Std.Dev. Proc.-Calc. Line Intensity(cps/uA)",
"--------------------------------------------------------------------------------",
"====[No. 1 Layer]====< Layer1               >===============================",
"Layer1                   0.000 ug/cm2    -------- Flux       -------- --------",