Folder: mestrado_ifusp/inputs/edxCalibration/edx_raw/2010-06 (part 8)

File: kcl 31495.20100611000453.csv
"Sample    : kcl 31495",
"Operator  : thiago",
"Comment  : cubatao-g-policarbonato",
"Group     : kerr2007ag180cal_lt",
"Date       : 2010-06-11 00:00:39",
"",
"Mesurement Condition",
"------------------------------------------------------------------------------------",
"Instrument : 700HS2   Atmosphere : Vac.   Collimator : 10(mm)   Spin : No",
"------------------------------------------------------------------------------------",
"Analyte               TG kV   uA      FI Acq.(keV)  Anal.(keV)  Time(sec)     DT(%)",
"------------------------------------------------------------------------------------",
"Na                    Rh 50  548-Auto Al  0 - 20    0.8 - 1.2   Live -  179   15",
"",
"<Profile>",
"Channel_info_start",
"Channel : Na",
"Points : 2048",
"Range : 0.000000 - 20.48",
"Step : 0.010000",
"Channel_info_end",
"0",
"0",
"0",
"0",
"0",
"50",
"37",
"29",
"31",
"37",
"39",
"61",
"163",
"173",
"67",
"64",
"48",
"55",
"56",
"48",
"62",
"90",
"269",
"262",
"79",
"76",
"96",
"95",
"191",
"237",
"133",
"133",
"151",
"206",
"251",
"274",
"1469",
"8486",
"7732",
"1480",
"1039",
"750",
"227",
"215",
"261",
"463",
"4267",
"18638",
"13587",
"2178",
"794",
"2575",
"2837",
"2172",
"560",
"106",
"137",
"281",
"240",
"72",
"44",
"59",
"56",
"87",
"95",
"110",
"110",
"130",
"138",
"127",
"106",
"114",
"94",
"78",
"75",
"96",
"91",
"109",
"105",
"94",
"105",
"92",
"114",
"105",
"111",
"136",
"119",
"134",
"126",
"151",
"146",
"180",
"160",
"161",
"189",
"172",
"197",
"164",
"180",
"176",
"187",
"193",
"224",
"230",
"219",
"200",
"200",
"202",
"190",
"203",
"156",
"219",
"197",
"244",
"242",
"289",
"195",
"187",
"191",
"201",
"200",
"215",
"235",
"292",
"269",
"184",
"170",
"209",
"206",
"150",
"170",
"182",
"156",
"156",
"179",
"196",
"197",
"207",
"194",
"183",
"190",
"173",
"192",
"187",
"193",
"190",
"214",
"210",
"195",
"179",
"187",
"178",
"171",
"168",
"180",
"180",
"155",
"166",
"178",
"202",
"195",
"184",
"183",
"150",
"164",
"160",
"169",
"161",
"173",
"174",
"193",
"200",
"161",
"160",
"162",
"190",
"184",
"153",
"168",
"161",
"164",
"140",
"139",
"176",
"171",
"164",
"155",
"172",
"136",
"146",
"167",
"148",
"144",
"153",
"143",
"152",
"149",
"135",
"141",
"157",
"172",
"151",
"146",
"112",
"130",
"146",
"138",
"144",
"134",
"151",
"135",
"146",
"117",
"137",
"146",
"118",
"136",
"124",
"138",
"134",
"90",
"126",
"134",
"139",
"144",
"122",
"114",
"112",
"161",
"125",
"127",
"126",
"107",
"132",
"92",
"122",
"109",
"115",
"116",
"98",
"123",
"112",
"109",
"105",
"138",
"107",
"105",
"103",
"115",
"121",
"107",
"130",
"112",
"117",
"122",
"124",
"132",
"116",
"106",
"135",
"145",
"139",
"121",
"146",
"151",
"190",
"189",
"258",
"300",
"368",
"443",
"588",
"706",
"750",
"796",
"779",
"686",
"615",
"423",
"328",
"278",
"213",
"193",
"190",
"196",
"274",
"299",
"316",
"341",
"233",
"138",
"119",
"111",
"54297",
"Channel_info_start",
"Channel : Mg",
"Points : 0",
"Range : 0.000000 - 0.000000",
"Step : 0.010000",
"Channel_info_end",
"Channel_info_start",
"Channel : Al",
"Points : 0",
"Range : 0.000000 - 0.000000",
"Step : 0.010000",
"Channel_info_end",
"Channel_info_start",
"Channel : Si",
"Points : 0",
"Range : 0.000000 - 0.000000",
"Step : 0.010000",
"Channel_info_end",
"Channel_info_start",
"Channel : P ",
"Points : 0",
"Range : 0.000000 - 0.000000",
"Step : 0.010000",
"Channel_info_end",
"Channel_info_start",
"Channel : S ",
"Points : 0",
"Range : 0.000000 - 0.000000",
"Step : 0.010000",
"Channel_info_end",
"Channel_info_start",
"Channel : Cl",
"Points : 0",
"Range : 0.000000 - 0.000000",
"Step : 0.010000",
"Channel_info_end",
"Channel_info_start",
"Channel : K ",
"Points : 0",
"Range : 0.000000 - 0.000000",
"Step : 0.010000",
"Channel_info_end",
"Channel_info_start",
"Channel : Ca",
"Points : 0",
"Range : 0.000000 - 0.000000",
"Step : 0.010000",
"Channel_info_end",
"Channel_info_start",
"Channel : Ti",
"Points : 0",
"Range : 0.000000 - 0.000000",
"Step : 0.010000",
"Channel_info_end",
"Channel_info_start",
"Channel : V ",
"Points : 0",
"Range : 0.000000 - 0.000000",
"Step : 0.010000",
"Channel_info_end",
"Channel_info_start",
"Channel : Cr",
"Points : 0",
"Range : 0.000000 - 0.000000",
"Step : 0.010000",
"Channel_info_end",
"Channel_info_start",
"Channel : Mn",
"Points : 0",
"Range : 0.000000 - 0.000000",
"Step : 0.010000",
"Channel_info_end",
"Channel_info_start",
"Channel : Fe",
"Points : 0",
"Range : 0.000000 - 0.000000",
"Step : 0.010000",
"Channel_info_end",
"Channel_info_start",
"Channel : Cu",
"Points : 0",
"Range : 0.000000 - 0.000000",
"Step : 0.010000",
"Channel_info_end",
"Channel_info_start",
"Channel : Zn",
"Points : 0",
"Range : 0.000000 - 0.000000",
"Step : 0.010000",
"Channel_info_end",
"Channel_info_start",
"Channel : Sr",
"Points : 0",
"Range : 0.000000 - 0.000000",
"Step : 0.010000",
"Channel_info_end",
"Channel_info_start",
"Channel : Pb",
"Points : 0",
"Range : 0.000000 - 0.000000",
"Step : 0.010000",
"Channel_info_end",
"",
"Qualitative Result",
"--------------------------------------------------------------------------------",
"Element :  K , P , Cl, Ca, Zn, Ru",
"",
"Peak List",
"--------------------------------------------------------------------------------",
"Channel               Line        keV     Net Int.(cps/uA)",
"--------------------------------------------------------------------------------",
"Na                    ----         0.88     0.017",
"                      K KaESC      1.56     0.026",
"                      P Ka         2.00     0.015",
"                      ClKa         2.62     1.289",
"                      ClKb         2.84     0.102",
"                      K Ka         3.32     2.727",
"                      K Kb         3.60     0.377",
"                      CaKa         3.69     0.229",
"                      CaKb         4.01     0.032",
"                      ----         4.76     0.012",
"                      ZnKa         8.63     0.019",
"                      RuKa        19.24     0.124",
"                      ----        19.95     0.028",
"--------------------------------------------------------------------------------",
"",
"Quantitative Result",
"--------------------------------------------------------------------------------",
"Analyte               Result             Std.Dev. Proc.-Calc. Line Intensity(cps/uA)",
"--------------------------------------------------------------------------------",
"====[No. 1 Layer]====< Layer1               >===============================",
"Layer1                   0.000 ug/cm2    -------- Flux       -------- --------",

File: mg 15751.20100525200723.csv
"Sample    : mg 15751",
"Operator  : thiago",
"Comment  : cubatao-g-policarbonato",
"Group     : kerr2007ag180cal_lt",
"Date       : 2010-05-25 20:03:14",
"",
"Mesurement Condition",
"------------------------------------------------------------------------------------",
"Instrument : 700HS2   Atmosphere : Vac.   Collimator : 10(mm)   Spin : No",
"------------------------------------------------------------------------------------",
"Analyte               TG kV   uA      FI Acq.(keV)  Anal.(keV)  Time(sec)     DT(%)",
"------------------------------------------------------------------------------------",
"Na                    Rh 50  970-Auto Al  0 - 20    0.8 - 1.2   Live -  179   14",
"",
"<Profile>",
"Channel_info_start",
"Channel : Na",
"Points : 2048",
"Range : 0.000000 - 20.48",
"Step : 0.010000",
"Channel_info_end",
"0",
"0",
"0",
"0",
"1",
"46",
"44",
"29",
"51",
"46",
"53",
"40",
"37",
"48",
"51",
"65",
"95",
"832",
"1691",
"495",
"66",
"44",
"32",
"42",
"42",
"53",
"33",
"74",
"142",
"176",
"54",
"42",
"32",
"39",
"40",
"25",
"27",
"40",
"47",
"43",
"40",
"48",
"37",
"39",
"36",
"43",
"60",
"38",
"38",
"54",
"83",
"406",
"1555",
"2045",
"689",
"223",
"206",
"338",
"288",
"135",
"83",
"108",
"103",
"152",
"139",
"196",
"176",
"150",
"154",
"156",
"135",
"143",
"153",
"151",
"149",
"184",
"187",
"179",
"174",
"198",
"168",
"197",
"196",
"205",
"212",
"235",
"237",
"241",
"235",
"298",
"254",
"312",
"273",
"320",
"298",
"344",
"298",
"324",
"326",
"343",
"326",
"303",
"294",
"337",
"337",
"313",
"318",
"325",
"298",
"320",
"338",
"327",
"349",
"380",
"404",
"419",
"359",
"360",
"351",
"344",
"380",
"355",
"411",
"498",
"471",
"378",
"336",
"322",
"346",
"357",
"357",
"383",
"312",
"308",
"322",
"347",
"373",
"362",
"333",
"337",
"319",
"321",
"285",
"333",
"302",
"319",
"285",
"301",
"332",
"334",
"301",
"320",
"327",
"321",
"296",
"315",
"335",
"302",
"303",
"327",
"332",
"285",
"310",
"303",
"298",
"311",
"306",
"285",
"299",
"274",
"267",
"242",
"298",
"243",
"290",
"291",
"291",
"321",
"273",
"263",
"277",
"268",
"281",
"271",
"290",
"281",
"236",
"281",
"263",
"298",
"268",
"257",
"274",
"249",
"250",
"257",
"262",
"276",
"269",
"254",
"226",
"253",
"276",
"264",
"242",
"254",
"234",
"260",
"249",
"261",
"223",
"256",
"266",
"232",
"206",
"241",
"250",
"237",
"235",
"253",
"253",
"213",
"226",
"240",
"221",
"225",
"238",
"199",
"209",
"195",
"210",
"237",
"218",
"205",
"205",
"206",
"211",
"210",
"218",
"207",
"198",
"206",
"178",
"221",
"205",
"203",
"206",
"211",
"209",
"215",
"194",
"194",
"204",
"224",
"218",
"211",
"260",
"233",
"231",
"252",
"263",
"249",
"226",
"317",
"303",
"313",
"335",
"449",
"537",
"632",
"842",
"1093",
"1305",
"1448",
"1497",
"1317",
"1235",
"1043",
"818",
"630",
"491",
"399",
"336",
"311",
"336",
"441",
"523",
"532",
"529",
"332",
"280",
"211",
"199",
"99771",
"Channel_info_start",
"Channel : Mg",
"Points : 0",
"Range : 0.000000 - 0.000000",
"Step : 0.010000",
"Channel_info_end",
"Channel_info_start",
"Channel : Al",
"Points : 0",
"Range : 0.000000 - 0.000000",
"Step : 0.010000",
"Channel_info_end",
"Channel_info_start",
"Channel : Si",
"Points : 0",
"Range : 0.000000 - 0.000000",
"Step : 0.010000",
"Channel_info_end",
"Channel_info_start",
"Channel : P ",
"Points : 0",
"Range : 0.000000 - 0.000000",
"Step : 0.010000",
"Channel_info_end",
"Channel_info_start",
"Channel : S ",
"Points : 0",
"Range : 0.000000 - 0.000000",
"Step : 0.010000",
"Channel_info_end",
"Channel_info_start",
"Channel : Cl",
"Points : 0",
"Range : 0.000000 - 0.000000",
"Step : 0.010000",
"Channel_info_end",
"Channel_info_start",
"Channel : K ",
"Points : 0",
"Range : 0.000000 - 0.000000",
"Step : 0.010000",
"Channel_info_end",
"Channel_info_start",
"Channel : Ca",
"Points : 0",
"Range : 0.000000 - 0.000000",
"Step : 0.010000",
"Channel_info_end",
"Channel_info_start",
"Channel : Ti",
"Points : 0",
"Range : 0.000000 - 0.000000",
"Step : 0.010000",
"Channel_info_end",
"Channel_info_start",
"Channel : V ",
"Points : 0",
"Range : 0.000000 - 0.000000",
"Step : 0.010000",
"Channel_info_end",
"Channel_info_start",
"Channel : Cr",
"Points : 0",
"Range : 0.000000 - 0.000000",
"Step : 0.010000",
"Channel_info_end",
"Channel_info_start",
"Channel : Mn",
"Points : 0",
"Range : 0.000000 - 0.000000",
"Step : 0.010000",
"Channel_info_end",
"Channel_info_start",
"Channel : Fe",
"Points : 0",
"Range : 0.000000 - 0.000000",
"Step : 0.010000",
"Channel_info_end",
"Channel_info_start",
"Channel : Cu",
"Points : 0",
"Range : 0.000000 - 0.000000",
"Step : 0.010000",
"Channel_info_end",
"Channel_info_start",
"Channel : Zn",
"Points : 0",
"Range : 0.000000 - 0.000000",
"Step : 0.010000",
"Channel_info_end",
"Channel_info_start",
"Channel : Sr",
"Points : 0",
"Range : 0.000000 - 0.000000",
"Step : 0.010000",
"Channel_info_end",
"Channel_info_start",
"Channel : Pb",
"Points : 0",
"Range : 0.000000 - 0.000000",
"Step : 0.010000",
"Channel_info_end",
"",
"Qualitative Result",
"--------------------------------------------------------------------------------",
"Element :  Mg, P , Ca, Zn, Ru",
"",
"Peak List",
"--------------------------------------------------------------------------------",
"Channel               Line        keV     Net Int.(cps/uA)",
"--------------------------------------------------------------------------------",
"Na                    MgKa         1.26     0.110",
"                      P Ka         2.01     0.011",
"                      CaKa         3.68     0.168",
"                      CaKb         4.02     0.021",
"                      ZnKa         8.63     0.019",
"                      RuKa        19.17     0.137",
"                      ----        19.48     0.051",
"                      ----        20.01     0.033",
"--------------------------------------------------------------------------------",
"",
"Quantitative Result",
"--------------------------------------------------------------------------------",
"Analyte               Result             Std.Dev. Proc.-Calc. Line Intensity(cps/uA)",
"--------------------------------------------------------------------------------",
"====[No. 1 Layer]====< Layer1               >===============================",
"Layer1                   0.000 ug/cm2    -------- Flux       -------- --------",

File: mg 31491.20100525201132.csv
"Sample    : mg 31491",
"Operator  : thiago",
"Comment  : cubatao-g-policarbonato",
"Group     : kerr2007ag180cal_lt",
"Date       : 2010-05-25 20:07:22",
"",
"Mesurement Condition",
"------------------------------------------------------------------------------------",
"Instrument : 700HS2   Atmosphere : Vac.   Collimator : 10(mm)   Spin : No",
"------------------------------------------------------------------------------------",
"Analyte               TG kV   uA      FI Acq.(keV)  Anal.(keV)  Time(sec)     DT(%)",
"------------------------------------------------------------------------------------",
"Na                    Rh 50  970-Auto Al  0 - 20    0.8 - 1.2   Live -  179   14",
"",
"<Profile>",
"Channel_info_start",
"Channel : Na",
"Points : 2048",
"Range : 0.000000 - 20.48",
"Step : 0.010000",
"Channel_info_end",
"0",
"0",
"0",
"0",
"2",
"45",
"45",
"58",
"33",
"40",
"42",
"41",
"45",
"49",
"42",
"48",
"51",
"124",
"202",
"74",
"37",
"50",
"37",
"40",
"86",
"144",
"95",
"89",
"233",
"349",
"78",
"44",
"54",
"40",
"38",
"27",
"25",
"42",
"53",
"46",
"62",
"70",
"38",
"46",
"32",
"49",
"53",
"43",
"55",
"69",
"97",
"497",
"2527",
"3712",
"1154",
"240",
"258",
"533",
"371",
"165",
"76",
"93",
"133",
"150",
"163",
"199",
"178",
"177",
"154",
"157",
"127",
"159",
"133",
"140",
"126",
"151",
"170",
"184",
"178",
"215",
"187",
"218",
"181",
"223",
"196",
"207",
"214",
"230",
"244",
"227",
"252",
"314",
"309",
"295",
"300",
"282",
"321",
"339",
"282",
"318",
"325",
"344",
"328",
"307",
"313",
"313",
"307",
"308",
"312",
"289",
"314",
"327",
"334",
"381",
"519",
"800",
"1098",
"828",
"546",
"396",
"343",
"379",
"435",
"539",
"448",
"370",
"348",
"385",
"358",
"350",
"355",
"374",
"594",
"696",
"716",
"537",
"452",
"458",
"449",
"406",
"333",
"375",
"254",
"330",
"321",
"334",
"281",
"330",
"294",
"304",
"296",
"304",
"330",
"315",
"318",
"369",
"370",
"326",
"340",
"338",
"340",
"327",
"283",
"279",
"315",
"318",
"275",
"314",
"301",
"298",
"301",
"296",
"284",
"303",
"286",
"300",
"266",
"270",
"266",
"268",
"269",
"279",
"263",
"256",
"274",
"252",
"263",
"285",
"274",
"269",
"279",
"276",
"309",
"261",
"250",
"269",
"281",
"301",
"233",
"281",
"263",
"257",
"223",
"233",
"259",
"227",
"186",
"223",
"247",
"212",
"223",
"230",
"232",
"255",
"222",
"217",
"266",
"254",
"227",
"196",
"242",
"201",
"201",
"244",
"209",
"202",
"239",
"222",
"226",
"206",
"229",
"218",
"196",
"223",
"185",
"216",
"220",
"226",
"222",
"218",
"206",
"208",
"201",
"181",
"189",
"167",
"215",
"223",
"208",
"186",
"188",
"204",
"202",
"185",
"188",
"203",
"223",
"208",
"192",
"201",
"223",
"245",
"236",
"270",
"261",
"330",
"326",
"439",
"514",
"648",
"816",
"1067",
"1290",
"1367",
"1417",
"1396",
"1260",
"1001",
"753",
"613",
"493",
"347",
"309",
"333",
"360",
"426",
"511",
"583",
"521",
"375",
"230",
"196",
"187",
"97371",
"Channel_info_start",
"Channel : Mg",
"Points : 0",
"Range : 0.000000 - 0.000000",
"Step : 0.010000",
"Channel_info_end",
"Channel_info_start",
"Channel : Al",
"Points : 0",
"Range : 0.000000 - 0.000000",
"Step : 0.010000",
"Channel_info_end",
"Channel_info_start",
"Channel : Si",
"Points : 0",
"Range : 0.000000 - 0.000000",
"Step : 0.010000",
"Channel_info_end",
"Channel_info_start",
"Channel : P ",
"Points : 0",
"Range : 0.000000 - 0.000000",
"Step : 0.010000",
"Channel_info_end",
"Channel_info_start",
"Channel : S ",
"Points : 0",
"Range : 0.000000 - 0.000000",
"Step : 0.010000",
"Channel_info_end",
"Channel_info_start",
"Channel : Cl",
"Points : 0",
"Range : 0.000000 - 0.000000",
"Step : 0.010000",
"Channel_info_end",
"Channel_info_start",
"Channel : K ",
"Points : 0",
"Range : 0.000000 - 0.000000",
"Step : 0.010000",
"Channel_info_end",
"Channel_info_start",
"Channel : Ca",
"Points : 0",
"Range : 0.000000 - 0.000000",
"Step : 0.010000",
"Channel_info_end",
"Channel_info_start",
"Channel : Ti",
"Points : 0",
"Range : 0.000000 - 0.000000",
"Step : 0.010000",
"Channel_info_end",
"Channel_info_start",
"Channel : V ",
"Points : 0",
"Range : 0.000000 - 0.000000",
"Step : 0.010000",
"Channel_info_end",
"Channel_info_start",
"Channel : Cr",
"Points : 0",
"Range : 0.000000 - 0.000000",
"Step : 0.010000",
"Channel_info_end",
"Channel_info_start",
"Channel : Mn",
"Points : 0",
"Range : 0.000000 - 0.000000",
"Step : 0.010000",
"Channel_info_end",
"Channel_info_start",
"Channel : Fe",
"Points : 0",
"Range : 0.000000 - 0.000000",
"Step : 0.010000",
"Channel_info_end",
"Channel_info_start",
"Channel : Cu",
"Points : 0",
"Range : 0.000000 - 0.000000",
"Step : 0.010000",
"Channel_info_end",
"Channel_info_start",
"Channel : Zn",
"Points : 0",
"Range : 0.000000 - 0.000000",
"Step : 0.010000",
"Channel_info_end",
"Channel_info_start",
"Channel : Sr",
"Points : 0",
"Range : 0.000000 - 0.000000",
"Step : 0.010000",
"Channel_info_end",
"Channel_info_start",
"Channel : Pb",
"Points : 0",
"Range : 0.000000 - 0.000000",
"Step : 0.010000",
"Channel_info_end",
"",
"Qualitative Result",
"--------------------------------------------------------------------------------",
"Element :  Mg, Si, P , Ca, Zn, Ru",
"",
"Peak List",
"--------------------------------------------------------------------------------",
"Channel               Line        keV     Net Int.(cps/uA)",
"--------------------------------------------------------------------------------",
"Na                    MgKa         1.26     0.011",
"                      SiKa         1.74     0.007",
"                      P Ka         2.00     0.022",
"                      CaKa         3.68     0.296",
"                      CaKb         4.00     0.036",
"                      ----         4.58     0.009",
"                      ----         8.12     0.074",
"                      ZnKa         8.63     0.018",
"                      ----         9.35     0.037",
"                      ZnKb         9.60     0.014",
"                      RuKa        19.20     0.135",
"                      ----        19.48     0.047",
"--------------------------------------------------------------------------------",
"",
"Quantitative Result",
"--------------------------------------------------------------------------------",
"Analyte               Result             Std.Dev. Proc.-Calc. Line Intensity(cps/uA)",
"--------------------------------------------------------------------------------",
"====[No. 1 Layer]====< Layer1               >===============================",
"Layer1                   0.000 ug/cm2    -------- Flux       -------- --------",

File: MoO3 15764.20100626140033.csv
"Sample    : MoO3 15764",
"Operator  : thiago",
"Comment  : cubatao-g-policarbonato",
"Group     : kerr2007ag180cal_lt",
"Date       : 2010-06-26 13:54:34",
"",
"Mesurement Condition",
"------------------------------------------------------------------------------------",
"Instrument : 700HS2   Atmosphere : Vac.   Collimator : 10(mm)   Spin : No",
"------------------------------------------------------------------------------------",
"Analyte               TG kV   uA      FI Acq.(keV)  Anal.(keV)  Time(sec)     DT(%)",
"------------------------------------------------------------------------------------",
"Na                    Rh 50  210-Auto Al  0 - 20    0.8 - 1.2   Live -  179   14",
"",
"<Profile>",
"Channel_info_start",
"Channel : Na",
"Points : 2048",
"Range : 0.000000 - 20.48",
"Step : 0.010000",
"Channel_info_end",
"0",
"0",
"0",
"0",
"0",
"44",
"43",
"55",
"82",
"83",
"51",
"43",
"37",
"43",
"59",
"57",
"53",
"51",
"44",
"34",
"37",
"40",
"30",
"40",
"48",
"42",
"55",
"85",
"175",
"264",
"180",
"243",
"1341",
"2791",
"1736",
"1082",
"428",
"169",
"73",
"53",
"75",
"52",
"22",
"19",
"22",
"22",
"19",
"22",
"22",
"22",
"27",
"98",
"302",
"456",
"157",
"70",
"28",
"84",
"66",
"52",
"28",
"22",
"32",
"33",
"47",
"55",
"53",
"58",
"46",
"36",
"42",
"47",
"43",
"61",
"36",
"51",
"43",
"57",
"33",
"31",
"59",
"67",
"53",
"63",
"51",
"65",
"69",
"57",
"70",
"71",
"71",
"81",
"93",
"97",
"85",
"85",
"82",
"85",
"76",
"81",
"85",
"99",
"84",
"84",
"89",
"88",
"76",
"86",
"95",
"86",
"74",
"91",
"79",
"96",
"95",
"110",
"98",
"93",
"77",
"101",
"90",
"82",
"105",
"124",
"114",
"107",
"86",
"99",
"98",
"77",
"63",
"88",
"81",
"81",
"71",
"84",
"96",
"98",
"73",
"85",
"100",
"99",
"79",
"98",
"93",
"80",
"75",
"79",
"94",
"69",
"95",
"91",
"77",
"82",
"95",
"83",
"84",
"96",
"77",
"74",
"81",
"69",
"80",
"71",
"77",
"65",
"71",
"87",
"82",
"70",
"65",
"72",
"83",
"82",
"86",
"81",
"69",
"79",
"86",
"74",
"81",
"69",
"75",
"53",
"66",
"85",
"69",
"80",
"74",
"79",
"56",
"73",
"91",
"55",
"62",
"51",
"60",
"77",
"68",
"72",
"66",
"63",
"58",
"82",
"52",
"66",
"77",
"63",
"56",
"55",
"49",
"56",
"66",
"55",
"60",
"53",
"56",
"59",
"60",
"56",
"55",
"67",
"56",
"51",
"63",
"70",
"65",
"73",
"66",
"52",
"61",
"61",
"65",
"71",
"71",
"71",
"74",
"74",
"66",
"98",
"87",
"103",
"111",
"169",
"324",
"946",
"2750",
"6204",
"10197",
"11983",
"10456",
"7048",
"3254",
"1002",
"285",
"113",
"88",
"69",
"58",
"69",
"80",
"60",
"62",
"67",
"85",
"90",
"88",
"110",
"136",
"146",
"193",
"231",
"299",
"296",
"359",
"367",
"459",
"814",
"1353",
"2007",
"2157",
"1681",
"1048",
"659",
"519",
"446",
"372",
"275",
"172",
"116",
"73",
"38",
"31",
"22361",
"Channel_info_start",
"Channel : Mg",
"Points : 0",
"Range : 0.000000 - 0.000000",
"Step : 0.010000",
"Channel_info_end",
"Channel_info_start",
"Channel : Al",
"Points : 0",
"Range : 0.000000 - 0.000000",
"Step : 0.010000",
"Channel_info_end",
"Channel_info_start",
"Channel : Si",
"Points : 0",
"Range : 0.000000 - 0.000000",
"Step : 0.010000",
"Channel_info_end",
"Channel_info_start",
"Channel : P ",
"Points : 0",
"Range : 0.000000 - 0.000000",
"Step : 0.010000",
"Channel_info_end",
"Channel_info_start",
"Channel : S ",
"Points : 0",
"Range : 0.000000 - 0.000000",
"Step : 0.010000",
"Channel_info_end",
"Channel_info_start",
"Channel : Cl",
"Points : 0",
"Range : 0.000000 - 0.000000",
"Step : 0.010000",
"Channel_info_end",
"Channel_info_start",
"Channel : K ",
"Points : 0",
"Range : 0.000000 - 0.000000",
"Step : 0.010000",
"Channel_info_end",
"Channel_info_start",
"Channel : Ca",
"Points : 0",
"Range : 0.000000 - 0.000000",
"Step : 0.010000",
"Channel_info_end",
"Channel_info_start",
"Channel : Ti",
"Points : 0",
"Range : 0.000000 - 0.000000",
"Step : 0.010000",
"Channel_info_end",
"Channel_info_start",
"Channel : V ",
"Points : 0",
"Range : 0.000000 - 0.000000",
"Step : 0.010000",
"Channel_info_end",
"Channel_info_start",
"Channel : Cr",
"Points : 0",
"Range : 0.000000 - 0.000000",
"Step : 0.010000",
"Channel_info_end",
"Channel_info_start",
"Channel : Mn",
"Points : 0",
"Range : 0.000000 - 0.000000",
"Step : 0.010000",
"Channel_info_end",
"Channel_info_start",
"Channel : Fe",
"Points : 0",
"Range : 0.000000 - 0.000000",
"Step : 0.010000",
"Channel_info_end",
"Channel_info_start",
"Channel : Cu",
"Points : 0",
"Range : 0.000000 - 0.000000",
"Step : 0.010000",
"Channel_info_end",
"Channel_info_start",
"Channel : Zn",
"Points : 0",
"Range : 0.000000 - 0.000000",
"Step : 0.010000",
"Channel_info_end",
"Channel_info_start",
"Channel : Sr",
"Points : 0",
"Range : 0.000000 - 0.000000",
"Step : 0.010000",
"Channel_info_end",
"Channel_info_start",
"Channel : Pb",
"Points : 0",
"Range : 0.000000 - 0.000000",
"Step : 0.010000",
"Channel_info_end",
"",
"Qualitative Result",
"--------------------------------------------------------------------------------",
"Element :  P , Mo, Ca",
"",
"Peak List",
"--------------------------------------------------------------------------------",
"Channel               Line        keV     Net Int.(cps/uA)",
"--------------------------------------------------------------------------------",
"Na                    ----         0.55     0.012",
"                      P Ka         2.02     0.061",
"                      MoLa         2.30     0.859",
"                      ----         2.43     0.394",
"                      CaKa         3.70     0.163",
"                      CaKb         4.00     0.020",
"                      MoKa        17.44     6.931",
"                      MoKb        19.57     1.109",
"                      ----        19.91     0.165",
"--------------------------------------------------------------------------------",
"",
"Quantitative Result",
"--------------------------------------------------------------------------------",
"Analyte               Result             Std.Dev. Proc.-Calc. Line Intensity(cps/uA)",
"--------------------------------------------------------------------------------",
"====[No. 1 Layer]====< Layer1               >===============================",
"Layer1                   0.000 ug/cm2    -------- Flux       -------- --------",