Folder: mestrado_ifusp/inputs/edxCalibration/edx_raw/2010-06 (part 7)

File: GaP 15753.20100525202812.csv
"Sample    : GaP 15753",
"Operator  : thiago",
"Comment  : cubatao-g-policarbonato",
"Group     : kerr2007ag180cal_lt",
"Date       : 2010-05-25 20:24:00",
"",
"Mesurement Condition",
"------------------------------------------------------------------------------------",
"Instrument : 700HS2   Atmosphere : Vac.   Collimator : 10(mm)   Spin : No",
"------------------------------------------------------------------------------------",
"Analyte               TG kV   uA      FI Acq.(keV)  Anal.(keV)  Time(sec)     DT(%)",
"------------------------------------------------------------------------------------",
"Na                    Rh 50  393-Auto Al  0 - 20    0.8 - 1.2   Live -  179   15",
"",
"<Profile>",
"Channel_info_start",
"Channel : Na",
"Points : 2048",
"Range : 0.000000 - 20.48",
"Step : 0.010000",
"Channel_info_end",
"0",
"0",
"0",
"0",
"1",
"40",
"25",
"30",
"32",
"23",
"28",
"27",
"30",
"40",
"57",
"227",
"477",
"215",
"52",
"25",
"28",
"28",
"41",
"54",
"83",
"171",
"181",
"345",
"2216",
"3686",
"801",
"231",
"41",
"20",
"12",
"17",
"11",
"15",
"21",
"20",
"17",
"14",
"14",
"13",
"19",
"16",
"25",
"14",
"22",
"30",
"25",
"139",
"573",
"815",
"224",
"82",
"65",
"134",
"117",
"48",
"33",
"42",
"53",
"59",
"65",
"111",
"70",
"68",
"65",
"62",
"46",
"74",
"64",
"79",
"69",
"62",
"76",
"72",
"68",
"81",
"76",
"78",
"73",
"96",
"90",
"109",
"93",
"100",
"113",
"123",
"131",
"119",
"135",
"145",
"129",
"131",
"136",
"131",
"144",
"155",
"144",
"151",
"142",
"154",
"136",
"122",
"185",
"163",
"164",
"140",
"123",
"158",
"143",
"158",
"180",
"216",
"169",
"150",
"136",
"138",
"143",
"169",
"168",
"210",
"222",
"180",
"167",
"176",
"281",
"1035",
"4956",
"15299",
"20646",
"13072",
"3977",
"752",
"238",
"188",
"145",
"135",
"150",
"166",
"178",
"250",
"475",
"1535",
"2629",
"2732",
"1304",
"477",
"183",
"155",
"138",
"136",
"118",
"117",
"123",
"133",
"114",
"127",
"148",
"149",
"109",
"147",
"124",
"110",
"115",
"133",
"119",
"103",
"106",
"113",
"125",
"119",
"117",
"120",
"111",
"114",
"102",
"109",
"89",
"94",
"110",
"123",
"98",
"118",
"118",
"125",
"101",
"101",
"113",
"100",
"86",
"108",
"85",
"93",
"108",
"125",
"111",
"95",
"100",
"117",
"84",
"87",
"101",
"89",
"91",
"107",
"97",
"76",
"87",
"109",
"101",
"105",
"97",
"115",
"94",
"86",
"79",
"85",
"83",
"99",
"108",
"81",
"93",
"87",
"87",
"91",
"81",
"88",
"86",
"78",
"88",
"85",
"74",
"87",
"76",
"72",
"81",
"70",
"75",
"88",
"89",
"82",
"77",
"78",
"70",
"85",
"89",
"77",
"64",
"82",
"82",
"88",
"88",
"88",
"96",
"66",
"74",
"88",
"105",
"103",
"84",
"120",
"149",
"135",
"132",
"171",
"209",
"259",
"330",
"438",
"474",
"533",
"509",
"570",
"518",
"380",
"317",
"225",
"187",
"120",
"109",
"118",
"126",
"163",
"220",
"255",
"230",
"124",
"114",
"90",
"85",
"37894",
"Channel_info_start",
"Channel : Mg",
"Points : 0",
"Range : 0.000000 - 0.000000",
"Step : 0.010000",
"Channel_info_end",
"Channel_info_start",
"Channel : Al",
"Points : 0",
"Range : 0.000000 - 0.000000",
"Step : 0.010000",
"Channel_info_end",
"Channel_info_start",
"Channel : Si",
"Points : 0",
"Range : 0.000000 - 0.000000",
"Step : 0.010000",
"Channel_info_end",
"Channel_info_start",
"Channel : P ",
"Points : 0",
"Range : 0.000000 - 0.000000",
"Step : 0.010000",
"Channel_info_end",
"Channel_info_start",
"Channel : S ",
"Points : 0",
"Range : 0.000000 - 0.000000",
"Step : 0.010000",
"Channel_info_end",
"Channel_info_start",
"Channel : Cl",
"Points : 0",
"Range : 0.000000 - 0.000000",
"Step : 0.010000",
"Channel_info_end",
"Channel_info_start",
"Channel : K ",
"Points : 0",
"Range : 0.000000 - 0.000000",
"Step : 0.010000",
"Channel_info_end",
"Channel_info_start",
"Channel : Ca",
"Points : 0",
"Range : 0.000000 - 0.000000",
"Step : 0.010000",
"Channel_info_end",
"Channel_info_start",
"Channel : Ti",
"Points : 0",
"Range : 0.000000 - 0.000000",
"Step : 0.010000",
"Channel_info_end",
"Channel_info_start",
"Channel : V ",
"Points : 0",
"Range : 0.000000 - 0.000000",
"Step : 0.010000",
"Channel_info_end",
"Channel_info_start",
"Channel : Cr",
"Points : 0",
"Range : 0.000000 - 0.000000",
"Step : 0.010000",
"Channel_info_end",
"Channel_info_start",
"Channel : Mn",
"Points : 0",
"Range : 0.000000 - 0.000000",
"Step : 0.010000",
"Channel_info_end",
"Channel_info_start",
"Channel : Fe",
"Points : 0",
"Range : 0.000000 - 0.000000",
"Step : 0.010000",
"Channel_info_end",
"Channel_info_start",
"Channel : Cu",
"Points : 0",
"Range : 0.000000 - 0.000000",
"Step : 0.010000",
"Channel_info_end",
"Channel_info_start",
"Channel : Zn",
"Points : 0",
"Range : 0.000000 - 0.000000",
"Step : 0.010000",
"Channel_info_end",
"Channel_info_start",
"Channel : Sr",
"Points : 0",
"Range : 0.000000 - 0.000000",
"Step : 0.010000",
"Channel_info_end",
"Channel_info_start",
"Channel : Pb",
"Points : 0",
"Range : 0.000000 - 0.000000",
"Step : 0.010000",
"Channel_info_end",
"",
"Qualitative Result",
"--------------------------------------------------------------------------------",
"Element :  Ga, Si, P , Ru",
"",
"Peak List",
"--------------------------------------------------------------------------------",
"Channel               Line        keV     Net Int.(cps/uA)",
"--------------------------------------------------------------------------------",
"Na                    GaLa         1.12     0.069",
"                      SiKa         1.76     0.023",
"                      P Ka         2.00     0.663",
"                      ----         3.68     0.166",
"                      P KaSUM      4.01     0.018",
"                      GaKa         9.24     5.172",
"                      GaKb        10.24     0.720",
"                      RuKa        19.16     0.122",
"                      ----        19.45     0.053",
"                      ----        20.02     0.046",
"--------------------------------------------------------------------------------",
"",
"Quantitative Result",
"--------------------------------------------------------------------------------",
"Analyte               Result             Std.Dev. Proc.-Calc. Line Intensity(cps/uA)",
"--------------------------------------------------------------------------------",
"====[No. 1 Layer]====< Layer1               >===============================",
"Layer1                   0.000 ug/cm2    -------- Flux       -------- --------",

File: kcl 31494.20100611000902.csv
"Sample    : kcl 31494",
"Operator  : thiago",
"Comment  : cubatao-g-policarbonato",
"Group     : kerr2007ag180cal_lt",
"Date       : 2010-06-11 00:04:51",
"",
"Mesurement Condition",
"------------------------------------------------------------------------------------",
"Instrument : 700HS2   Atmosphere : Vac.   Collimator : 10(mm)   Spin : No",
"------------------------------------------------------------------------------------",
"Analyte               TG kV   uA      FI Acq.(keV)  Anal.(keV)  Time(sec)     DT(%)",
"------------------------------------------------------------------------------------",
"Na                    Rh 50  500-Auto Al  0 - 20    0.8 - 1.2   Live -  179   15",
"",
"<Profile>",
"Channel_info_start",
"Channel : Na",
"Points : 2048",
"Range : 0.000000 - 20.48",
"Step : 0.010000",
"Channel_info_end",
"0",
"0",
"0",
"0",
"0",
"31",
"25",
"49",
"29",
"33",
"34",
"48",
"135",
"168",
"45",
"59",
"44",
"41",
"47",
"50",
"62",
"80",
"245",
"221",
"82",
"75",
"85",
"98",
"163",
"212",
"120",
"160",
"173",
"188",
"229",
"314",
"1340",
"8104",
"7355",
"1437",
"1076",
"744",
"231",
"216",
"235",
"429",
"3993",
"18252",
"12995",
"2018",
"719",
"2419",
"2684",
"1994",
"506",
"113",
"120",
"262",
"189",
"70",
"40",
"44",
"44",
"74",
"88",
"91",
"88",
"100",
"91",
"104",
"109",
"95",
"100",
"89",
"75",
"84",
"76",
"92",
"99",
"108",
"106",
"105",
"104",
"101",
"82",
"120",
"116",
"87",
"123",
"144",
"129",
"167",
"152",
"153",
"140",
"144",
"169",
"159",
"157",
"175",
"169",
"187",
"178",
"163",
"166",
"188",
"157",
"215",
"160",
"176",
"201",
"196",
"194",
"236",
"202",
"242",
"204",
"177",
"168",
"193",
"180",
"209",
"244",
"265",
"238",
"224",
"188",
"173",
"178",
"181",
"134",
"165",
"163",
"175",
"160",
"189",
"163",
"184",
"176",
"189",
"170",
"191",
"185",
"196",
"184",
"163",
"176",
"169",
"168",
"165",
"168",
"177",
"164",
"168",
"180",
"168",
"159",
"163",
"175",
"159",
"182",
"154",
"146",
"151",
"167",
"175",
"144",
"146",
"171",
"155",
"153",
"181",
"173",
"129",
"167",
"167",
"170",
"147",
"173",
"170",
"157",
"168",
"154",
"169",
"160",
"157",
"152",
"145",
"137",
"171",
"129",
"139",
"151",
"153",
"143",
"146",
"146",
"127",
"111",
"128",
"140",
"124",
"132",
"144",
"122",
"137",
"127",
"127",
"123",
"125",
"118",
"127",
"111",
"127",
"112",
"107",
"121",
"107",
"96",
"110",
"144",
"111",
"119",
"113",
"125",
"143",
"120",
"118",
"106",
"106",
"100",
"115",
"89",
"108",
"106",
"120",
"99",
"118",
"94",
"101",
"91",
"104",
"101",
"108",
"103",
"105",
"94",
"128",
"115",
"105",
"144",
"107",
"87",
"79",
"108",
"115",
"135",
"115",
"117",
"120",
"105",
"134",
"130",
"151",
"157",
"167",
"155",
"225",
"260",
"321",
"417",
"518",
"694",
"699",
"747",
"729",
"686",
"529",
"400",
"352",
"263",
"180",
"166",
"181",
"173",
"259",
"326",
"348",
"296",
"199",
"140",
"108",
"101",
"50442",
"Channel_info_start",
"Channel : Mg",
"Points : 0",
"Range : 0.000000 - 0.000000",
"Step : 0.010000",
"Channel_info_end",
"Channel_info_start",
"Channel : Al",
"Points : 0",
"Range : 0.000000 - 0.000000",
"Step : 0.010000",
"Channel_info_end",
"Channel_info_start",
"Channel : Si",
"Points : 0",
"Range : 0.000000 - 0.000000",
"Step : 0.010000",
"Channel_info_end",
"Channel_info_start",
"Channel : P ",
"Points : 0",
"Range : 0.000000 - 0.000000",
"Step : 0.010000",
"Channel_info_end",
"Channel_info_start",
"Channel : S ",
"Points : 0",
"Range : 0.000000 - 0.000000",
"Step : 0.010000",
"Channel_info_end",
"Channel_info_start",
"Channel : Cl",
"Points : 0",
"Range : 0.000000 - 0.000000",
"Step : 0.010000",
"Channel_info_end",
"Channel_info_start",
"Channel : K ",
"Points : 0",
"Range : 0.000000 - 0.000000",
"Step : 0.010000",
"Channel_info_end",
"Channel_info_start",
"Channel : Ca",
"Points : 0",
"Range : 0.000000 - 0.000000",
"Step : 0.010000",
"Channel_info_end",
"Channel_info_start",
"Channel : Ti",
"Points : 0",
"Range : 0.000000 - 0.000000",
"Step : 0.010000",
"Channel_info_end",
"Channel_info_start",
"Channel : V ",
"Points : 0",
"Range : 0.000000 - 0.000000",
"Step : 0.010000",
"Channel_info_end",
"Channel_info_start",
"Channel : Cr",
"Points : 0",
"Range : 0.000000 - 0.000000",
"Step : 0.010000",
"Channel_info_end",
"Channel_info_start",
"Channel : Mn",
"Points : 0",
"Range : 0.000000 - 0.000000",
"Step : 0.010000",
"Channel_info_end",
"Channel_info_start",
"Channel : Fe",
"Points : 0",
"Range : 0.000000 - 0.000000",
"Step : 0.010000",
"Channel_info_end",
"Channel_info_start",
"Channel : Cu",
"Points : 0",
"Range : 0.000000 - 0.000000",
"Step : 0.010000",
"Channel_info_end",
"Channel_info_start",
"Channel : Zn",
"Points : 0",
"Range : 0.000000 - 0.000000",
"Step : 0.010000",
"Channel_info_end",
"Channel_info_start",
"Channel : Sr",
"Points : 0",
"Range : 0.000000 - 0.000000",
"Step : 0.010000",
"Channel_info_end",
"Channel_info_start",
"Channel : Pb",
"Points : 0",
"Range : 0.000000 - 0.000000",
"Step : 0.010000",
"Channel_info_end",
"",
"Qualitative Result",
"--------------------------------------------------------------------------------",
"Element :  P , Cl, K , Ca, Ru",
"",
"Peak List",
"--------------------------------------------------------------------------------",
"Channel               Line        keV     Net Int.(cps/uA)",
"--------------------------------------------------------------------------------",
"Na                    ----         0.87     0.020",
"                      ----         1.56     0.030",
"                      P Ka         2.01     0.015",
"                      ClKa         2.62     1.371",
"                      ClKb         2.84     0.112",
"                      K Ka         3.32     2.894",
"                      K Kb         3.61     0.392",
"                      CaKa         3.69     0.172",
"                      CaKb         4.01     0.024",
"                      RuKa        19.20     0.142",
"                      ----        19.41     0.075",
"                      ----        20.01     0.051",
"--------------------------------------------------------------------------------",
"",
"Quantitative Result",
"--------------------------------------------------------------------------------",
"Analyte               Result             Std.Dev. Proc.-Calc. Line Intensity(cps/uA)",
"--------------------------------------------------------------------------------",
"====[No. 1 Layer]====< Layer1               >===============================",
"Layer1                   0.000 ug/cm2    -------- Flux       -------- --------",

File: KCl 31495.20100525205136.csv
"Sample    : KCl 31495",
"Operator  : luisf",
"Comment  : cubatao-g-policarbonato",
"Group     : kerr2007ag180cal_lt",
"Date       : 2010-05-25 20:47:22",
"",
"Mesurement Condition",
"------------------------------------------------------------------------------------",
"Instrument : 700HS2   Atmosphere : Vac.   Collimator : 10(mm)   Spin : No",
"------------------------------------------------------------------------------------",
"Analyte               TG kV   uA      FI Acq.(keV)  Anal.(keV)  Time(sec)     DT(%)",
"------------------------------------------------------------------------------------",
"Na                    Rh 50  548-Auto Al  0 - 20    0.8 - 1.2   Live -  179   15",
"",
"<Profile>",
"Channel_info_start",
"Channel : Na",
"Points : 2048",
"Range : 0.000000 - 20.48",
"Step : 0.010000",
"Channel_info_end",
"0",
"0",
"0",
"0",
"2",
"34",
"20",
"37",
"39",
"50",
"47",
"54",
"173",
"187",
"66",
"72",
"46",
"48",
"50",
"66",
"70",
"95",
"263",
"210",
"58",
"83",
"93",
"103",
"201",
"209",
"137",
"140",
"178",
"227",
"210",
"286",
"1515",
"8577",
"7676",
"1462",
"1080",
"804",
"236",
"207",
"249",
"439",
"4360",
"18634",
"13866",
"2084",
"817",
"2524",
"2810",
"2087",
"593",
"141",
"126",
"253",
"198",
"90",
"37",
"50",
"54",
"84",
"90",
"101",
"93",
"83",
"110",
"91",
"89",
"81",
"88",
"103",
"79",
"81",
"91",
"109",
"91",
"100",
"89",
"107",
"101",
"114",
"124",
"122",
"116",
"173",
"124",
"148",
"112",
"168",
"157",
"160",
"161",
"168",
"187",
"185",
"167",
"208",
"167",
"220",
"185",
"195",
"170",
"195",
"189",
"184",
"193",
"197",
"213",
"195",
"238",
"212",
"252",
"271",
"208",
"191",
"174",
"203",
"186",
"220",
"234",
"291",
"267",
"205",
"195",
"198",
"191",
"201",
"184",
"197",
"180",
"194",
"191",
"206",
"170",
"177",
"198",
"186",
"198",
"191",
"161",
"181",
"173",
"189",
"169",
"224",
"184",
"200",
"168",
"213",
"181",
"216",
"166",
"182",
"179",
"158",
"182",
"183",
"184",
"180",
"163",
"196",
"163",
"150",
"151",
"204",
"170",
"187",
"150",
"168",
"130",
"173",
"157",
"163",
"173",
"166",
"150",
"190",
"183",
"149",
"141",
"161",
"157",
"177",
"137",
"171",
"158",
"162",
"135",
"166",
"163",
"192",
"129",
"147",
"153",
"124",
"145",
"148",
"135",
"127",
"115",
"158",
"134",
"129",
"125",
"158",
"146",
"133",
"137",
"152",
"134",
"146",
"116",
"135",
"153",
"139",
"129",
"122",
"132",
"122",
"114",
"111",
"127",
"133",
"110",
"123",
"148",
"115",
"111",
"101",
"125",
"112",
"106",
"93",
"134",
"126",
"116",
"128",
"101",
"107",
"115",
"116",
"104",
"111",
"119",
"127",
"119",
"116",
"99",
"122",
"117",
"114",
"123",
"125",
"130",
"104",
"122",
"109",
"138",
"126",
"128",
"145",
"164",
"162",
"185",
"239",
"292",
"403",
"462",
"601",
"718",
"765",
"761",
"804",
"736",
"567",
"457",
"346",
"249",
"218",
"149",
"201",
"204",
"265",
"327",
"369",
"289",
"195",
"158",
"110",
"107",
"54055",
"Channel_info_start",
"Channel : Mg",
"Points : 0",
"Range : 0.000000 - 0.000000",
"Step : 0.010000",
"Channel_info_end",
"Channel_info_start",
"Channel : Al",
"Points : 0",
"Range : 0.000000 - 0.000000",
"Step : 0.010000",
"Channel_info_end",
"Channel_info_start",
"Channel : Si",
"Points : 0",
"Range : 0.000000 - 0.000000",
"Step : 0.010000",
"Channel_info_end",
"Channel_info_start",
"Channel : P ",
"Points : 0",
"Range : 0.000000 - 0.000000",
"Step : 0.010000",
"Channel_info_end",
"Channel_info_start",
"Channel : S ",
"Points : 0",
"Range : 0.000000 - 0.000000",
"Step : 0.010000",
"Channel_info_end",
"Channel_info_start",
"Channel : Cl",
"Points : 0",
"Range : 0.000000 - 0.000000",
"Step : 0.010000",
"Channel_info_end",
"Channel_info_start",
"Channel : K ",
"Points : 0",
"Range : 0.000000 - 0.000000",
"Step : 0.010000",
"Channel_info_end",
"Channel_info_start",
"Channel : Ca",
"Points : 0",
"Range : 0.000000 - 0.000000",
"Step : 0.010000",
"Channel_info_end",
"Channel_info_start",
"Channel : Ti",
"Points : 0",
"Range : 0.000000 - 0.000000",
"Step : 0.010000",
"Channel_info_end",
"Channel_info_start",
"Channel : V ",
"Points : 0",
"Range : 0.000000 - 0.000000",
"Step : 0.010000",
"Channel_info_end",
"Channel_info_start",
"Channel : Cr",
"Points : 0",
"Range : 0.000000 - 0.000000",
"Step : 0.010000",
"Channel_info_end",
"Channel_info_start",
"Channel : Mn",
"Points : 0",
"Range : 0.000000 - 0.000000",
"Step : 0.010000",
"Channel_info_end",
"Channel_info_start",
"Channel : Fe",
"Points : 0",
"Range : 0.000000 - 0.000000",
"Step : 0.010000",
"Channel_info_end",
"Channel_info_start",
"Channel : Cu",
"Points : 0",
"Range : 0.000000 - 0.000000",
"Step : 0.010000",
"Channel_info_end",
"Channel_info_start",
"Channel : Zn",
"Points : 0",
"Range : 0.000000 - 0.000000",
"Step : 0.010000",
"Channel_info_end",
"Channel_info_start",
"Channel : Sr",
"Points : 0",
"Range : 0.000000 - 0.000000",
"Step : 0.010000",
"Channel_info_end",
"Channel_info_start",
"Channel : Pb",
"Points : 0",
"Range : 0.000000 - 0.000000",
"Step : 0.010000",
"Channel_info_end",
"",
"Qualitative Result",
"--------------------------------------------------------------------------------",
"Element :  P , Cl, K , Ca, Zn",
"",
"Peak List",
"--------------------------------------------------------------------------------",
"Channel               Line        keV     Net Int.(cps/uA)",
"--------------------------------------------------------------------------------",
"Na                    ----         0.87     0.017",
"                      ----         1.57     0.029",
"                      P Ka         2.01     0.015",
"                      ClKa         2.62     1.296",
"                      ClKb         2.84     0.106",
"                      K Ka         3.32     2.767",
"                      K Kb         3.61     0.392",
"                      CaKa         3.69     0.215",
"                      CaKb         4.02     0.030",
"                      ZnKa         8.60     0.018",
"                      ----        19.13     0.135",
"                      ----        19.40     0.072",
"                      ----        20.00     0.044",
"--------------------------------------------------------------------------------",
"",
"Quantitative Result",
"--------------------------------------------------------------------------------",
"Analyte               Result             Std.Dev. Proc.-Calc. Line Intensity(cps/uA)",
"--------------------------------------------------------------------------------",
"====[No. 1 Layer]====< Layer1               >===============================",
"Layer1                   0.000 ug/cm2    -------- Flux       -------- --------",