Folder: mestrado_ifusp/inputs/edxCalibration/edx_raw/2010-06 (part 16)

File: Te 15768.20100626142519.csv
"Sample    : Te 15768",
"Operator  : thiago",
"Comment  : cubatao-g-policarbonato",
"Group     : kerr2007ag180cal_lt",
"Date       : 2010-06-26 14:21:07",
"",
"Mesurement Condition",
"------------------------------------------------------------------------------------",
"Instrument : 700HS2   Atmosphere : Vac.   Collimator : 10(mm)   Spin : No",
"------------------------------------------------------------------------------------",
"Analyte               TG kV   uA      FI Acq.(keV)  Anal.(keV)  Time(sec)     DT(%)",
"------------------------------------------------------------------------------------",
"Na                    Rh 50  360-Auto Al  0 - 20    0.8 - 1.2   Live -  179   15",
"",
"<Profile>",
"Channel_info_start",
"Channel : Na",
"Points : 2048",
"Range : 0.000000 - 20.48",
"Step : 0.010000",
"Channel_info_end",
"0",
"0",
"0",
"0",
"2",
"56",
"37",
"49",
"38",
"26",
"28",
"52",
"41",
"31",
"45",
"33",
"31",
"37",
"40",
"50",
"50",
"56",
"61",
"68",
"45",
"73",
"59",
"50",
"142",
"249",
"100",
"95",
"131",
"158",
"94",
"72",
"66",
"100",
"92",
"68",
"71",
"64",
"58",
"68",
"93",
"99",
"157",
"582",
"694",
"344",
"224",
"504",
"1657",
"8332",
"13894",
"5538",
"1549",
"6297",
"8585",
"4838",
"1647",
"1674",
"1747",
"563",
"456",
"1053",
"854",
"333",
"488",
"673",
"364",
"161",
"76",
"64",
"62",
"100",
"98",
"112",
"115",
"110",
"87",
"84",
"93",
"94",
"108",
"100",
"117",
"125",
"112",
"137",
"138",
"171",
"148",
"145",
"127",
"138",
"131",
"134",
"146",
"183",
"160",
"164",
"151",
"174",
"178",
"176",
"172",
"199",
"153",
"182",
"168",
"183",
"186",
"217",
"219",
"214",
"214",
"176",
"169",
"159",
"147",
"188",
"193",
"243",
"218",
"172",
"167",
"160",
"170",
"180",
"174",
"182",
"176",
"183",
"166",
"144",
"180",
"157",
"143",
"173",
"166",
"173",
"218",
"241",
"172",
"151",
"154",
"151",
"164",
"151",
"161",
"172",
"160",
"145",
"174",
"168",
"157",
"142",
"153",
"153",
"166",
"163",
"171",
"143",
"151",
"166",
"157",
"166",
"184",
"181",
"197",
"192",
"155",
"129",
"125",
"141",
"124",
"124",
"143",
"135",
"158",
"126",
"158",
"129",
"132",
"141",
"145",
"106",
"132",
"134",
"133",
"126",
"110",
"120",
"121",
"112",
"118",
"118",
"133",
"124",
"110",
"124",
"108",
"107",
"107",
"119",
"102",
"123",
"106",
"95",
"124",
"113",
"96",
"97",
"112",
"98",
"96",
"87",
"97",
"124",
"93",
"107",
"96",
"131",
"95",
"88",
"72",
"99",
"105",
"135",
"89",
"84",
"97",
"86",
"85",
"89",
"93",
"87",
"92",
"78",
"95",
"95",
"86",
"102",
"86",
"105",
"82",
"96",
"97",
"98",
"89",
"81",
"97",
"105",
"81",
"84",
"102",
"98",
"73",
"98",
"114",
"92",
"93",
"101",
"113",
"146",
"146",
"172",
"161",
"223",
"316",
"371",
"468",
"505",
"522",
"566",
"515",
"407",
"296",
"248",
"219",
"168",
"114",
"157",
"164",
"231",
"339",
"429",
"368",
"225",
"136",
"105",
"81",
"100799",
"Channel_info_start",
"Channel : Mg",
"Points : 0",
"Range : 0.000000 - 0.000000",
"Step : 0.010000",
"Channel_info_end",
"Channel_info_start",
"Channel : Al",
"Points : 0",
"Range : 0.000000 - 0.000000",
"Step : 0.010000",
"Channel_info_end",
"Channel_info_start",
"Channel : Si",
"Points : 0",
"Range : 0.000000 - 0.000000",
"Step : 0.010000",
"Channel_info_end",
"Channel_info_start",
"Channel : P ",
"Points : 0",
"Range : 0.000000 - 0.000000",
"Step : 0.010000",
"Channel_info_end",
"Channel_info_start",
"Channel : S ",
"Points : 0",
"Range : 0.000000 - 0.000000",
"Step : 0.010000",
"Channel_info_end",
"Channel_info_start",
"Channel : Cl",
"Points : 0",
"Range : 0.000000 - 0.000000",
"Step : 0.010000",
"Channel_info_end",
"Channel_info_start",
"Channel : K ",
"Points : 0",
"Range : 0.000000 - 0.000000",
"Step : 0.010000",
"Channel_info_end",
"Channel_info_start",
"Channel : Ca",
"Points : 0",
"Range : 0.000000 - 0.000000",
"Step : 0.010000",
"Channel_info_end",
"Channel_info_start",
"Channel : Ti",
"Points : 0",
"Range : 0.000000 - 0.000000",
"Step : 0.010000",
"Channel_info_end",
"Channel_info_start",
"Channel : V ",
"Points : 0",
"Range : 0.000000 - 0.000000",
"Step : 0.010000",
"Channel_info_end",
"Channel_info_start",
"Channel : Cr",
"Points : 0",
"Range : 0.000000 - 0.000000",
"Step : 0.010000",
"Channel_info_end",
"Channel_info_start",
"Channel : Mn",
"Points : 0",
"Range : 0.000000 - 0.000000",
"Step : 0.010000",
"Channel_info_end",
"Channel_info_start",
"Channel : Fe",
"Points : 0",
"Range : 0.000000 - 0.000000",
"Step : 0.010000",
"Channel_info_end",
"Channel_info_start",
"Channel : Cu",
"Points : 0",
"Range : 0.000000 - 0.000000",
"Step : 0.010000",
"Channel_info_end",
"Channel_info_start",
"Channel : Zn",
"Points : 0",
"Range : 0.000000 - 0.000000",
"Step : 0.010000",
"Channel_info_end",
"Channel_info_start",
"Channel : Sr",
"Points : 0",
"Range : 0.000000 - 0.000000",
"Step : 0.010000",
"Channel_info_end",
"Channel_info_start",
"Channel : Pb",
"Points : 0",
"Range : 0.000000 - 0.000000",
"Step : 0.010000",
"Channel_info_end",
"",
"Qualitative Result",
"--------------------------------------------------------------------------------",
"Element :  P , S , Te, K , Ru",
"",
"Peak List",
"--------------------------------------------------------------------------------",
"Channel               Line        keV     Net Int.(cps/uA)",
"--------------------------------------------------------------------------------",
"Na                    P Ka         2.03     0.040",
"                      S Ka         2.28     0.022",
"                      TeLL         3.34     0.089",
"                      K Ka         3.34     0.051",
"                      TeLa         3.77     2.965",
"                      TeLb1        4.04     1.905",
"                      TeLb2        4.31     0.336",
"                      TeLg1        4.58     0.160",
"                      TeLg2        4.83     0.108",
"                      ----         9.99     0.027",
"                      RuKa        19.21     0.148",
"                      ----        19.51     0.049",
"--------------------------------------------------------------------------------",
"",
"Quantitative Result",
"--------------------------------------------------------------------------------",
"Analyte               Result             Std.Dev. Proc.-Calc. Line Intensity(cps/uA)",
"--------------------------------------------------------------------------------",
"====[No. 1 Layer]====< Layer1               >===============================",
"Layer1                   0.000 ug/cm2    -------- Flux       -------- --------",

File: Ti 15755 .20100610234805.csv
"Sample    : Ti 15755 ",
"Operator  : thiago",
"Comment  : cubatao-g-policarbonato",
"Group     : kerr2007ag180cal_lt",
"Date       : 2010-06-10 23:44:05",
"",
"Mesurement Condition",
"------------------------------------------------------------------------------------",
"Instrument : 700HS2   Atmosphere : Vac.   Collimator : 10(mm)   Spin : No",
"------------------------------------------------------------------------------------",
"Analyte               TG kV   uA      FI Acq.(keV)  Anal.(keV)  Time(sec)     DT(%)",
"------------------------------------------------------------------------------------",
"Na                    Rh 50  268-Auto Al  0 - 20    0.8 - 1.2   Live -  179   13",
"",
"<Profile>",
"Channel_info_start",
"Channel : Na",
"Points : 2048",
"Range : 0.000000 - 20.48",
"Step : 0.010000",
"Channel_info_end",
"0",
"0",
"0",
"0",
"0",
"14",
"14",
"17",
"15",
"13",
"15",
"13",
"11",
"18",
"13",
"13",
"12",
"18",
"14",
"21",
"22",
"23",
"22",
"25",
"16",
"19",
"26",
"34",
"53",
"64",
"27",
"15",
"26",
"26",
"34",
"24",
"29",
"23",
"64",
"253",
"238",
"66",
"24",
"30",
"44",
"57",
"41",
"37",
"23",
"37",
"72",
"157",
"477",
"667",
"238",
"149",
"133",
"194",
"170",
"151",
"146",
"236",
"683",
"8011",
"29320",
"25063",
"4806",
"366",
"221",
"1171",
"3535",
"3238",
"773",
"81",
"43",
"48",
"58",
"52",
"55",
"41",
"36",
"61",
"56",
"53",
"43",
"68",
"51",
"67",
"68",
"82",
"84",
"112",
"95",
"96",
"84",
"75",
"87",
"95",
"78",
"82",
"105",
"99",
"84",
"92",
"106",
"71",
"99",
"92",
"89",
"93",
"90",
"71",
"83",
"110",
"109",
"119",
"112",
"93",
"104",
"106",
"103",
"118",
"136",
"167",
"148",
"105",
"99",
"106",
"125",
"108",
"91",
"108",
"118",
"94",
"85",
"104",
"111",
"102",
"91",
"74",
"83",
"102",
"76",
"101",
"91",
"98",
"75",
"68",
"85",
"93",
"91",
"85",
"91",
"82",
"104",
"69",
"98",
"110",
"83",
"96",
"85",
"101",
"89",
"104",
"81",
"85",
"75",
"95",
"105",
"83",
"70",
"91",
"76",
"71",
"89",
"76",
"76",
"70",
"83",
"82",
"70",
"79",
"81",
"85",
"74",
"80",
"81",
"81",
"64",
"82",
"75",
"79",
"65",
"75",
"67",
"61",
"67",
"74",
"62",
"67",
"71",
"78",
"65",
"59",
"63",
"67",
"69",
"69",
"57",
"61",
"69",
"61",
"65",
"70",
"58",
"61",
"88",
"84",
"55",
"70",
"44",
"59",
"75",
"61",
"67",
"59",
"55",
"78",
"55",
"62",
"52",
"61",
"59",
"53",
"63",
"57",
"68",
"53",
"51",
"63",
"56",
"48",
"51",
"57",
"69",
"52",
"61",
"61",
"57",
"54",
"71",
"61",
"42",
"65",
"57",
"72",
"54",
"64",
"54",
"59",
"71",
"51",
"65",
"75",
"78",
"66",
"95",
"117",
"135",
"200",
"226",
"251",
"328",
"382",
"368",
"367",
"372",
"282",
"227",
"161",
"119",
"97",
"71",
"90",
"115",
"149",
"186",
"177",
"173",
"94",
"69",
"54",
"48",
"26954",
"Channel_info_start",
"Channel : Mg",
"Points : 0",
"Range : 0.000000 - 0.000000",
"Step : 0.010000",
"Channel_info_end",
"Channel_info_start",
"Channel : Al",
"Points : 0",
"Range : 0.000000 - 0.000000",
"Step : 0.010000",
"Channel_info_end",
"Channel_info_start",
"Channel : Si",
"Points : 0",
"Range : 0.000000 - 0.000000",
"Step : 0.010000",
"Channel_info_end",
"Channel_info_start",
"Channel : P ",
"Points : 0",
"Range : 0.000000 - 0.000000",
"Step : 0.010000",
"Channel_info_end",
"Channel_info_start",
"Channel : S ",
"Points : 0",
"Range : 0.000000 - 0.000000",
"Step : 0.010000",
"Channel_info_end",
"Channel_info_start",
"Channel : Cl",
"Points : 0",
"Range : 0.000000 - 0.000000",
"Step : 0.010000",
"Channel_info_end",
"Channel_info_start",
"Channel : K ",
"Points : 0",
"Range : 0.000000 - 0.000000",
"Step : 0.010000",
"Channel_info_end",
"Channel_info_start",
"Channel : Ca",
"Points : 0",
"Range : 0.000000 - 0.000000",
"Step : 0.010000",
"Channel_info_end",
"Channel_info_start",
"Channel : Ti",
"Points : 0",
"Range : 0.000000 - 0.000000",
"Step : 0.010000",
"Channel_info_end",
"Channel_info_start",
"Channel : V ",
"Points : 0",
"Range : 0.000000 - 0.000000",
"Step : 0.010000",
"Channel_info_end",
"Channel_info_start",
"Channel : Cr",
"Points : 0",
"Range : 0.000000 - 0.000000",
"Step : 0.010000",
"Channel_info_end",
"Channel_info_start",
"Channel : Mn",
"Points : 0",
"Range : 0.000000 - 0.000000",
"Step : 0.010000",
"Channel_info_end",
"Channel_info_start",
"Channel : Fe",
"Points : 0",
"Range : 0.000000 - 0.000000",
"Step : 0.010000",
"Channel_info_end",
"Channel_info_start",
"Channel : Cu",
"Points : 0",
"Range : 0.000000 - 0.000000",
"Step : 0.010000",
"Channel_info_end",
"Channel_info_start",
"Channel : Zn",
"Points : 0",
"Range : 0.000000 - 0.000000",
"Step : 0.010000",
"Channel_info_end",
"Channel_info_start",
"Channel : Sr",
"Points : 0",
"Range : 0.000000 - 0.000000",
"Step : 0.010000",
"Channel_info_end",
"Channel_info_start",
"Channel : Pb",
"Points : 0",
"Range : 0.000000 - 0.000000",
"Step : 0.010000",
"Channel_info_end",
"",
"Qualitative Result",
"--------------------------------------------------------------------------------",
"Element :  P , Ti, Ru",
"",
"Peak List",
"--------------------------------------------------------------------------------",
"Channel               Line        keV     Net Int.(cps/uA)",
"--------------------------------------------------------------------------------",
"Na                    P Ka         1.98     0.013",
"                      TiKaESC      2.76     0.065",
"                      ----         3.69     0.178",
"                      TiKa         4.50     9.504",
"                      TiKb         4.93     1.218",
"                      RuKa        19.15     0.134",
"                      ----        19.44     0.074",
"                      ----        20.00     0.054",
"--------------------------------------------------------------------------------",
"",
"Quantitative Result",
"--------------------------------------------------------------------------------",
"Analyte               Result             Std.Dev. Proc.-Calc. Line Intensity(cps/uA)",
"--------------------------------------------------------------------------------",
"====[No. 1 Layer]====< Layer1               >===============================",
"Layer1                   0.000 ug/cm2    -------- Flux       -------- --------",

File: Ti 31498.20100610234406.csv
"Sample    : Ti 31498",
"Operator  : thiago",
"Comment  : cubatao-g-policarbonato",
"Group     : kerr2007ag180cal_lt",
"Date       : 2010-06-10 23:39:53",
"",
"Mesurement Condition",
"------------------------------------------------------------------------------------",
"Instrument : 700HS2   Atmosphere : Vac.   Collimator : 10(mm)   Spin : No",
"------------------------------------------------------------------------------------",
"Analyte               TG kV   uA      FI Acq.(keV)  Anal.(keV)  Time(sec)     DT(%)",
"------------------------------------------------------------------------------------",
"Na                    Rh 50  312-Auto Al  0 - 20    0.8 - 1.2   Live -  179   15",
"",
"<Profile>",
"Channel_info_start",
"Channel : Na",
"Points : 2048",
"Range : 0.000000 - 20.48",
"Step : 0.010000",
"Channel_info_end",
"0",
"0",
"0",
"0",
"0",
"19",
"20",
"22",
"23",
"20",
"15",
"23",
"18",
"19",
"13",
"25",
"27",
"24",
"14",
"26",
"21",
"33",
"16",
"30",
"26",
"32",
"30",
"46",
"98",
"107",
"29",
"22",
"26",
"21",
"24",
"24",
"23",
"42",
"81",
"282",
"249",
"84",
"33",
"41",
"41",
"57",
"70",
"58",
"38",
"50",
"57",
"184",
"899",
"1207",
"415",
"170",
"189",
"297",
"225",
"179",
"185",
"293",
"845",
"9724",
"34116",
"29074",
"5850",
"436",
"314",
"1462",
"4121",
"3774",
"982",
"111",
"47",
"45",
"59",
"69",
"55",
"54",
"47",
"49",
"69",
"73",
"79",
"87",
"103",
"109",
"99",
"111",
"124",
"130",
"151",
"132",
"103",
"101",
"101",
"111",
"105",
"89",
"106",
"106",
"86",
"94",
"81",
"86",
"87",
"79",
"81",
"117",
"96",
"100",
"88",
"128",
"150",
"128",
"129",
"111",
"115",
"114",
"101",
"123",
"139",
"174",
"146",
"137",
"107",
"116",
"146",
"172",
"145",
"118",
"121",
"107",
"113",
"126",
"110",
"101",
"104",
"89",
"96",
"96",
"83",
"99",
"103",
"109",
"93",
"110",
"105",
"95",
"112",
"98",
"98",
"117",
"107",
"100",
"78",
"94",
"100",
"99",
"86",
"123",
"100",
"103",
"94",
"109",
"102",
"95",
"78",
"90",
"88",
"101",
"91",
"104",
"106",
"113",
"106",
"89",
"77",
"103",
"81",
"95",
"71",
"84",
"94",
"101",
"78",
"102",
"90",
"89",
"75",
"94",
"93",
"83",
"66",
"105",
"88",
"90",
"86",
"106",
"82",
"79",
"82",
"78",
"69",
"76",
"70",
"88",
"81",
"71",
"73",
"84",
"80",
"80",
"78",
"80",
"73",
"103",
"73",
"67",
"81",
"80",
"70",
"77",
"81",
"77",
"68",
"76",
"95",
"59",
"69",
"93",
"72",
"67",
"67",
"71",
"67",
"56",
"77",
"69",
"59",
"59",
"61",
"52",
"48",
"60",
"70",
"56",
"73",
"65",
"60",
"62",
"54",
"59",
"67",
"67",
"60",
"81",
"55",
"69",
"80",
"75",
"73",
"67",
"113",
"104",
"110",
"133",
"146",
"180",
"265",
"316",
"419",
"444",
"464",
"441",
"402",
"357",
"238",
"195",
"145",
"137",
"100",
"99",
"132",
"159",
"180",
"201",
"205",
"107",
"76",
"52",
"54",
"30779",
"Channel_info_start",
"Channel : Mg",
"Points : 0",
"Range : 0.000000 - 0.000000",
"Step : 0.010000",
"Channel_info_end",
"Channel_info_start",
"Channel : Al",
"Points : 0",
"Range : 0.000000 - 0.000000",
"Step : 0.010000",
"Channel_info_end",
"Channel_info_start",
"Channel : Si",
"Points : 0",
"Range : 0.000000 - 0.000000",
"Step : 0.010000",
"Channel_info_end",
"Channel_info_start",
"Channel : P ",
"Points : 0",
"Range : 0.000000 - 0.000000",
"Step : 0.010000",
"Channel_info_end",
"Channel_info_start",
"Channel : S ",
"Points : 0",
"Range : 0.000000 - 0.000000",
"Step : 0.010000",
"Channel_info_end",
"Channel_info_start",
"Channel : Cl",
"Points : 0",
"Range : 0.000000 - 0.000000",
"Step : 0.010000",
"Channel_info_end",
"Channel_info_start",
"Channel : K ",
"Points : 0",
"Range : 0.000000 - 0.000000",
"Step : 0.010000",
"Channel_info_end",
"Channel_info_start",
"Channel : Ca",
"Points : 0",
"Range : 0.000000 - 0.000000",
"Step : 0.010000",
"Channel_info_end",
"Channel_info_start",
"Channel : Ti",
"Points : 0",
"Range : 0.000000 - 0.000000",
"Step : 0.010000",
"Channel_info_end",
"Channel_info_start",
"Channel : V ",
"Points : 0",
"Range : 0.000000 - 0.000000",
"Step : 0.010000",
"Channel_info_end",
"Channel_info_start",
"Channel : Cr",
"Points : 0",
"Range : 0.000000 - 0.000000",
"Step : 0.010000",
"Channel_info_end",
"Channel_info_start",
"Channel : Mn",
"Points : 0",
"Range : 0.000000 - 0.000000",
"Step : 0.010000",
"Channel_info_end",
"Channel_info_start",
"Channel : Fe",
"Points : 0",
"Range : 0.000000 - 0.000000",
"Step : 0.010000",
"Channel_info_end",
"Channel_info_start",
"Channel : Cu",
"Points : 0",
"Range : 0.000000 - 0.000000",
"Step : 0.010000",
"Channel_info_end",
"Channel_info_start",
"Channel : Zn",
"Points : 0",
"Range : 0.000000 - 0.000000",
"Step : 0.010000",
"Channel_info_end",
"Channel_info_start",
"Channel : Sr",
"Points : 0",
"Range : 0.000000 - 0.000000",
"Step : 0.010000",
"Channel_info_end",
"Channel_info_start",
"Channel : Pb",
"Points : 0",
"Range : 0.000000 - 0.000000",
"Step : 0.010000",
"Channel_info_end",
"",
"Qualitative Result",
"--------------------------------------------------------------------------------",
"Element :  P , Ti, Ca, Rh",
"",
"Peak List",
"--------------------------------------------------------------------------------",
"Channel               Line        keV     Net Int.(cps/uA)",
"--------------------------------------------------------------------------------",
"Na                    P Ka         2.00     0.019",
"                      TiKaESC      2.76     0.067",
"                      CaKa         3.68     0.299",
"                      CaKb         4.02     0.041",
"                      TiKa         4.50     9.661",
"                      TiKb         4.92     1.206",
"                      RhKaC       19.21     0.136",
"                      ----        19.52     0.036",
"                      RhKa        20.08     0.052",
"--------------------------------------------------------------------------------",
"",
"Quantitative Result",
"--------------------------------------------------------------------------------",
"Analyte               Result             Std.Dev. Proc.-Calc. Line Intensity(cps/uA)",
"--------------------------------------------------------------------------------",
"====[No. 1 Layer]====< Layer1               >===============================",
"Layer1                   0.000 ug/cm2    -------- Flux       -------- --------",

File: YbF3 31518.20100526005923.csv
"Sample    : YbF3 31518",
"Operator  : luisf",
"Comment  : cubatao-g-policarbonato",
"Group     : kerr2007ag180cal_lt",
"Date       : 2010-05-26 00:55:21",
"",
"Mesurement Condition",
"------------------------------------------------------------------------------------",
"Instrument : 700HS2   Atmosphere : Vac.   Collimator : 10(mm)   Spin : No",
"------------------------------------------------------------------------------------",
"Analyte               TG kV   uA      FI Acq.(keV)  Anal.(keV)  Time(sec)     DT(%)",
"------------------------------------------------------------------------------------",
"Na                    Rh 50  237-Auto Al  0 - 20    0.8 - 1.2   Live -  180   15",
"",
"<Profile>",
"Channel_info_start",
"Channel : Na",
"Points : 2048",
"Range : 0.000000 - 20.48",
"Step : 0.010000",
"Channel_info_end",
"0",
"0",
"0",
"0",
"0",
"24",
"24",
"25",
"16",
"21",
"22",
"15",
"17",
"16",
"11",
"26",
"65",
"160",
"79",
"42",
"80",
"781",
"2304",
"1454",
"262",
"265",
"151",
"67",
"102",
"137",
"49",
"26",
"21",
"21",
"27",
"17",
"20",
"18",
"30",
"25",
"25",
"23",
"15",
"20",
"12",
"16",
"20",
"21",
"14",
"14",
"36",
"112",
"648",
"858",
"262",
"48",
"71",
"150",
"105",
"33",
"39",
"39",
"41",
"43",
"56",
"61",
"68",
"61",
"66",
"60",
"51",
"68",
"60",
"56",
"54",
"56",
"61",
"68",
"58",
"83",
"78",
"109",
"85",
"97",
"67",
"86",
"67",
"98",
"116",
"111",
"125",
"149",
"373",
"676",
"593",
"357",
"156",
"160",
"133",
"146",
"164",
"185",
"237",
"585",
"3096",
"9760",
"12771",
"7332",
"1837",
"451",
"207",
"188",
"175",
"184",
"176",
"377",
"522",
"816",
"2130",
"5842",
"7541",
"5710",
"2535",
"1503",
"1727",
"2300",
"1586",
"688",
"262",
"179",
"133",
"137",
"214",
"277",
"287",
"231",
"210",
"322",
"602",
"1111",
"1216",
"698",
"337",
"401",
"510",
"513",
"323",
"192",
"127",
"161",
"129",
"140",
"97",
"108",
"103",
"129",
"134",
"112",
"112",
"118",
"121",
"114",
"102",
"104",
"109",
"115",
"98",
"88",
"98",
"94",
"89",
"110",
"81",
"97",
"100",
"91",
"91",
"90",
"88",
"70",
"90",
"94",
"81",
"103",
"86",
"86",
"71",
"79",
"75",
"96",
"88",
"85",
"89",
"73",
"85",
"68",
"63",
"89",
"92",
"87",
"72",
"80",
"76",
"68",
"97",
"74",
"73",
"66",
"72",
"77",
"75",
"75",
"77",
"81",
"84",
"63",
"79",
"93",
"72",
"53",
"64",
"53",
"74",
"60",
"64",
"79",
"66",
"77",
"76",
"67",
"73",
"52",
"66",
"74",
"78",
"54",
"61",
"65",
"58",
"65",
"62",
"64",
"59",
"59",
"53",
"54",
"62",
"61",
"47",
"67",
"56",
"53",
"50",
"52",
"54",
"62",
"62",
"72",
"58",
"70",
"53",
"58",
"71",
"63",
"70",
"90",
"80",
"112",
"135",
"181",
"223",
"255",
"274",
"374",
"344",
"377",
"349",
"263",
"190",
"165",
"125",
"117",
"93",
"84",
"135",
"178",
"253",
"281",
"228",
"133",
"108",
"64",
"49",
"26713",
"Channel_info_start",
"Channel : Mg",
"Points : 0",
"Range : 0.000000 - 0.000000",
"Step : 0.010000",
"Channel_info_end",
"Channel_info_start",
"Channel : Al",
"Points : 0",
"Range : 0.000000 - 0.000000",
"Step : 0.010000",
"Channel_info_end",
"Channel_info_start",
"Channel : Si",
"Points : 0",
"Range : 0.000000 - 0.000000",
"Step : 0.010000",
"Channel_info_end",
"Channel_info_start",
"Channel : P ",
"Points : 0",
"Range : 0.000000 - 0.000000",
"Step : 0.010000",
"Channel_info_end",
"Channel_info_start",
"Channel : S ",
"Points : 0",
"Range : 0.000000 - 0.000000",
"Step : 0.010000",
"Channel_info_end",
"Channel_info_start",
"Channel : Cl",
"Points : 0",
"Range : 0.000000 - 0.000000",
"Step : 0.010000",
"Channel_info_end",
"Channel_info_start",
"Channel : K ",
"Points : 0",
"Range : 0.000000 - 0.000000",
"Step : 0.010000",
"Channel_info_end",
"Channel_info_start",
"Channel : Ca",
"Points : 0",
"Range : 0.000000 - 0.000000",
"Step : 0.010000",
"Channel_info_end",
"Channel_info_start",
"Channel : Ti",
"Points : 0",
"Range : 0.000000 - 0.000000",
"Step : 0.010000",
"Channel_info_end",
"Channel_info_start",
"Channel : V ",
"Points : 0",
"Range : 0.000000 - 0.000000",
"Step : 0.010000",
"Channel_info_end",
"Channel_info_start",
"Channel : Cr",
"Points : 0",
"Range : 0.000000 - 0.000000",
"Step : 0.010000",
"Channel_info_end",
"Channel_info_start",
"Channel : Mn",
"Points : 0",
"Range : 0.000000 - 0.000000",
"Step : 0.010000",
"Channel_info_end",
"Channel_info_start",
"Channel : Fe",
"Points : 0",
"Range : 0.000000 - 0.000000",
"Step : 0.010000",
"Channel_info_end",
"Channel_info_start",
"Channel : Cu",
"Points : 0",
"Range : 0.000000 - 0.000000",
"Step : 0.010000",
"Channel_info_end",
"Channel_info_start",
"Channel : Zn",
"Points : 0",
"Range : 0.000000 - 0.000000",
"Step : 0.010000",
"Channel_info_end",
"Channel_info_start",
"Channel : Sr",
"Points : 0",
"Range : 0.000000 - 0.000000",
"Step : 0.010000",
"Channel_info_end",
"Channel_info_start",
"Channel : Pb",
"Points : 0",
"Range : 0.000000 - 0.000000",
"Step : 0.010000",
"Channel_info_end",
"",
"Qualitative Result",
"--------------------------------------------------------------------------------",
"Element :  Mg, Yb, Ta, P , Ca, Dy, Ni, Rh",
"",
"Peak List",
"--------------------------------------------------------------------------------",
"Channel               Line        keV     Net Int.(cps/uA)",
"--------------------------------------------------------------------------------",
"Na                    MgKa         1.20     0.037",
"                      YbMa         1.55     0.617",
"                      TaMa         1.76     0.059",
"                      P Ka         2.01     0.035",
"                      CaKa         3.69     0.286",
"                      CaKb         3.99     0.036",
"                      YbLL         6.54     0.154",
"                      DyLa         6.54     0.090",
"                      DyLb1        7.25     0.050",
"                      NiKa         7.40     5.143",
"                      YbLb4        8.27     0.720",
"                      YbLb1        8.40     2.987",
"                      YbLb2        8.76     0.810",
"                      TaLb1        9.34     0.059",
"                      YbLg1        9.77     0.472",
"                      YbLg2       10.11     0.153",
"                      RhKaC       19.23     0.127",
"                      RhKa        20.08     0.110",
"--------------------------------------------------------------------------------",
"",
"Quantitative Result",
"--------------------------------------------------------------------------------",
"Analyte               Result             Std.Dev. Proc.-Calc. Line Intensity(cps/uA)",
"--------------------------------------------------------------------------------",
"====[No. 1 Layer]====< Layer1               >===============================",
"Layer1                  12.101 ug/cm2    -------- Flux       -------- --------",
"Mg                      12.101 ug/cm2    -------- ********** -------- --------",