Folder: mestrado_ifusp/inputs/edxCalibration/edx_raw/2010-06 (part 3)

File: Bi 15773.20100526014213.csv
"Sample    : Bi 15773",
"Operator  : luisf",
"Comment  : cubatao-g-policarbonato",
"Group     : kerr2007ag180cal_lt",
"Date       : 2010-05-26 01:38:07",
"",
"Mesurement Condition",
"------------------------------------------------------------------------------------",
"Instrument : 700HS2   Atmosphere : Vac.   Collimator : 10(mm)   Spin : No",
"------------------------------------------------------------------------------------",
"Analyte               TG kV   uA      FI Acq.(keV)  Anal.(keV)  Time(sec)     DT(%)",
"------------------------------------------------------------------------------------",
"Na                    Rh 50  187-Auto Al  0 - 20    0.8 - 1.2   Live -  179   16",
"",
"<Profile>",
"Channel_info_start",
"Channel : Na",
"Points : 2048",
"Range : 0.000000 - 20.48",
"Step : 0.010000",
"Channel_info_end",
"0",
"0",
"0",
"0",
"0",
"33",
"31",
"32",
"38",
"59",
"100",
"82",
"51",
"43",
"27",
"34",
"34",
"31",
"29",
"39",
"34",
"44",
"37",
"41",
"58",
"62",
"105",
"374",
"223",
"148",
"142",
"201",
"239",
"465",
"2362",
"4564",
"3777",
"1703",
"354",
"509",
"329",
"105",
"80",
"96",
"81",
"132",
"209",
"139",
"72",
"31",
"31",
"110",
"485",
"730",
"207",
"56",
"59",
"123",
"89",
"33",
"17",
"31",
"47",
"34",
"44",
"56",
"47",
"46",
"35",
"44",
"31",
"38",
"45",
"39",
"38",
"44",
"32",
"48",
"41",
"58",
"72",
"90",
"86",
"90",
"75",
"66",
"59",
"69",
"66",
"58",
"76",
"97",
"95",
"94",
"78",
"86",
"82",
"83",
"76",
"84",
"59",
"101",
"77",
"88",
"99",
"90",
"92",
"128",
"107",
"97",
"92",
"95",
"84",
"107",
"123",
"117",
"100",
"100",
"94",
"82",
"92",
"109",
"124",
"160",
"143",
"141",
"131",
"122",
"131",
"136",
"130",
"159",
"162",
"355",
"651",
"727",
"411",
"244",
"110",
"107",
"104",
"109",
"104",
"89",
"113",
"117",
"126",
"97",
"99",
"134",
"169",
"466",
"1770",
"5112",
"9001",
"10548",
"6240",
"2202",
"517",
"182",
"112",
"137",
"124",
"110",
"114",
"133",
"177",
"248",
"196",
"192",
"118",
"89",
"87",
"104",
"85",
"105",
"139",
"201",
"309",
"340",
"459",
"542",
"636",
"1234",
"3354",
"6320",
"6805",
"5033",
"2371",
"1064",
"558",
"498",
"389",
"240",
"151",
"141",
"116",
"84",
"85",
"66",
"76",
"73",
"77",
"62",
"74",
"68",
"70",
"62",
"83",
"87",
"118",
"114",
"96",
"94",
"107",
"305",
"597",
"1007",
"990",
"774",
"395",
"264",
"267",
"319",
"341",
"276",
"174",
"96",
"80",
"69",
"74",
"95",
"92",
"78",
"94",
"62",
"36",
"53",
"40",
"48",
"46",
"58",
"58",
"44",
"52",
"53",
"51",
"47",
"44",
"51",
"49",
"59",
"58",
"47",
"46",
"51",
"64",
"43",
"54",
"49",
"61",
"56",
"57",
"64",
"59",
"73",
"83",
"65",
"96",
"109",
"158",
"222",
"274",
"270",
"302",
"277",
"231",
"219",
"165",
"134",
"123",
"76",
"82",
"90",
"124",
"168",
"231",
"287",
"260",
"154",
"101",
"52",
"44",
"23763",
"Channel_info_start",
"Channel : Mg",
"Points : 0",
"Range : 0.000000 - 0.000000",
"Step : 0.010000",
"Channel_info_end",
"Channel_info_start",
"Channel : Al",
"Points : 0",
"Range : 0.000000 - 0.000000",
"Step : 0.010000",
"Channel_info_end",
"Channel_info_start",
"Channel : Si",
"Points : 0",
"Range : 0.000000 - 0.000000",
"Step : 0.010000",
"Channel_info_end",
"Channel_info_start",
"Channel : P ",
"Points : 0",
"Range : 0.000000 - 0.000000",
"Step : 0.010000",
"Channel_info_end",
"Channel_info_start",
"Channel : S ",
"Points : 0",
"Range : 0.000000 - 0.000000",
"Step : 0.010000",
"Channel_info_end",
"Channel_info_start",
"Channel : Cl",
"Points : 0",
"Range : 0.000000 - 0.000000",
"Step : 0.010000",
"Channel_info_end",
"Channel_info_start",
"Channel : K ",
"Points : 0",
"Range : 0.000000 - 0.000000",
"Step : 0.010000",
"Channel_info_end",
"Channel_info_start",
"Channel : Ca",
"Points : 0",
"Range : 0.000000 - 0.000000",
"Step : 0.010000",
"Channel_info_end",
"Channel_info_start",
"Channel : Ti",
"Points : 0",
"Range : 0.000000 - 0.000000",
"Step : 0.010000",
"Channel_info_end",
"Channel_info_start",
"Channel : V ",
"Points : 0",
"Range : 0.000000 - 0.000000",
"Step : 0.010000",
"Channel_info_end",
"Channel_info_start",
"Channel : Cr",
"Points : 0",
"Range : 0.000000 - 0.000000",
"Step : 0.010000",
"Channel_info_end",
"Channel_info_start",
"Channel : Mn",
"Points : 0",
"Range : 0.000000 - 0.000000",
"Step : 0.010000",
"Channel_info_end",
"Channel_info_start",
"Channel : Fe",
"Points : 0",
"Range : 0.000000 - 0.000000",
"Step : 0.010000",
"Channel_info_end",
"Channel_info_start",
"Channel : Cu",
"Points : 0",
"Range : 0.000000 - 0.000000",
"Step : 0.010000",
"Channel_info_end",
"Channel_info_start",
"Channel : Zn",
"Points : 0",
"Range : 0.000000 - 0.000000",
"Step : 0.010000",
"Channel_info_end",
"Channel_info_start",
"Channel : Sr",
"Points : 0",
"Range : 0.000000 - 0.000000",
"Step : 0.010000",
"Channel_info_end",
"Channel_info_start",
"Channel : Pb",
"Points : 0",
"Range : 0.000000 - 0.000000",
"Step : 0.010000",
"Channel_info_end",
"",
"Qualitative Result",
"--------------------------------------------------------------------------------",
"Element :  Bi, Ca, Rb",
"",
"Peak List",
"--------------------------------------------------------------------------------",
"Channel               Line        keV     Net Int.(cps/uA)",
"--------------------------------------------------------------------------------",
"Na                    ----         0.67     0.022",
"                      ----         0.80     0.019",
"                      ----         1.90     0.092",
"                      BiMa         2.44     1.632",
"                      ----         2.75     0.156",
"                      ----         3.20     0.059",
"                      CaKa         3.70     0.286",
"                      CaKb         4.01     0.039",
"                      BiLL         9.40     0.338",
"                      BiLa        10.84     5.868",
"                      ----        11.69     0.080",
"                      BiLb4       12.63     0.093",
"                      BiLb1       13.00     3.968",
"                      RbKa        13.44     0.091",
"                      BiLg1       15.24     0.586",
"                      BiLg2       15.65     0.175",
"                      ----        19.13     0.147",
"                      ----        19.44     0.072",
"--------------------------------------------------------------------------------",
"",
"Quantitative Result",
"--------------------------------------------------------------------------------",
"Analyte               Result             Std.Dev. Proc.-Calc. Line Intensity(cps/uA)",
"--------------------------------------------------------------------------------",
"====[No. 1 Layer]====< Layer1               >===============================",
"Layer1                   0.000 ug/cm2    -------- Flux       -------- --------",

File: Bi 15773.20100626153131.csv
"Sample    : Bi 15773",
"Operator  : luis",
"Comment  : cubatao-g-policarbonato",
"Group     : kerr2007ag180cal_lt",
"Date       : 2010-06-26 15:25:30",
"",
"Mesurement Condition",
"------------------------------------------------------------------------------------",
"Instrument : 700HS2   Atmosphere : Vac.   Collimator : 10(mm)   Spin : No",
"------------------------------------------------------------------------------------",
"Analyte               TG kV   uA      FI Acq.(keV)  Anal.(keV)  Time(sec)     DT(%)",
"------------------------------------------------------------------------------------",
"Na                    Rh 50  187-Auto Al  0 - 20    0.8 - 1.2   Live -  179   15",
"",
"<Profile>",
"Channel_info_start",
"Channel : Na",
"Points : 2048",
"Range : 0.000000 - 20.48",
"Step : 0.010000",
"Channel_info_end",
"0",
"0",
"0",
"0",
"0",
"38",
"25",
"30",
"48",
"67",
"106",
"79",
"51",
"36",
"42",
"34",
"21",
"37",
"30",
"32",
"32",
"42",
"34",
"30",
"35",
"57",
"126",
"321",
"239",
"153",
"127",
"212",
"288",
"419",
"2292",
"4557",
"3621",
"1775",
"403",
"488",
"308",
"88",
"63",
"94",
"66",
"126",
"187",
"145",
"54",
"44",
"27",
"91",
"435",
"680",
"200",
"55",
"73",
"94",
"73",
"35",
"17",
"30",
"25",
"34",
"44",
"41",
"46",
"34",
"29",
"39",
"34",
"46",
"48",
"62",
"46",
"49",
"46",
"40",
"40",
"62",
"81",
"89",
"83",
"74",
"63",
"69",
"65",
"67",
"64",
"72",
"79",
"92",
"81",
"76",
"70",
"66",
"76",
"75",
"84",
"104",
"92",
"103",
"85",
"98",
"96",
"78",
"97",
"95",
"118",
"92",
"89",
"91",
"96",
"111",
"111",
"135",
"106",
"87",
"85",
"88",
"85",
"107",
"103",
"149",
"151",
"133",
"98",
"125",
"126",
"119",
"131",
"135",
"162",
"368",
"676",
"728",
"408",
"217",
"109",
"97",
"96",
"101",
"91",
"99",
"96",
"95",
"101",
"116",
"124",
"133",
"161",
"447",
"1545",
"4519",
"8672",
"10149",
"6523",
"2306",
"583",
"184",
"133",
"109",
"109",
"108",
"124",
"137",
"199",
"254",
"219",
"190",
"115",
"99",
"114",
"106",
"96",
"123",
"137",
"203",
"270",
"319",
"415",
"528",
"552",
"1165",
"3030",
"5935",
"6867",
"5210",
"2660",
"1126",
"618",
"481",
"347",
"252",
"151",
"107",
"111",
"92",
"84",
"85",
"72",
"71",
"65",
"73",
"63",
"60",
"63",
"74",
"82",
"86",
"95",
"106",
"101",
"82",
"122",
"246",
"612",
"948",
"1008",
"708",
"422",
"230",
"277",
"309",
"368",
"276",
"193",
"98",
"74",
"82",
"59",
"87",
"91",
"94",
"54",
"66",
"53",
"50",
"54",
"65",
"44",
"61",
"48",
"45",
"51",
"32",
"40",
"47",
"49",
"53",
"54",
"50",
"52",
"46",
"49",
"57",
"70",
"46",
"47",
"51",
"57",
"54",
"79",
"51",
"66",
"55",
"62",
"82",
"115",
"143",
"148",
"219",
"263",
"321",
"289",
"301",
"260",
"243",
"174",
"148",
"134",
"78",
"64",
"88",
"120",
"162",
"201",
"237",
"243",
"195",
"90",
"70",
"48",
"23342",
"Channel_info_start",
"Channel : Mg",
"Points : 0",
"Range : 0.000000 - 0.000000",
"Step : 0.010000",
"Channel_info_end",
"Channel_info_start",
"Channel : Al",
"Points : 0",
"Range : 0.000000 - 0.000000",
"Step : 0.010000",
"Channel_info_end",
"Channel_info_start",
"Channel : Si",
"Points : 0",
"Range : 0.000000 - 0.000000",
"Step : 0.010000",
"Channel_info_end",
"Channel_info_start",
"Channel : P ",
"Points : 0",
"Range : 0.000000 - 0.000000",
"Step : 0.010000",
"Channel_info_end",
"Channel_info_start",
"Channel : S ",
"Points : 0",
"Range : 0.000000 - 0.000000",
"Step : 0.010000",
"Channel_info_end",
"Channel_info_start",
"Channel : Cl",
"Points : 0",
"Range : 0.000000 - 0.000000",
"Step : 0.010000",
"Channel_info_end",
"Channel_info_start",
"Channel : K ",
"Points : 0",
"Range : 0.000000 - 0.000000",
"Step : 0.010000",
"Channel_info_end",
"Channel_info_start",
"Channel : Ca",
"Points : 0",
"Range : 0.000000 - 0.000000",
"Step : 0.010000",
"Channel_info_end",
"Channel_info_start",
"Channel : Ti",
"Points : 0",
"Range : 0.000000 - 0.000000",
"Step : 0.010000",
"Channel_info_end",
"Channel_info_start",
"Channel : V ",
"Points : 0",
"Range : 0.000000 - 0.000000",
"Step : 0.010000",
"Channel_info_end",
"Channel_info_start",
"Channel : Cr",
"Points : 0",
"Range : 0.000000 - 0.000000",
"Step : 0.010000",
"Channel_info_end",
"Channel_info_start",
"Channel : Mn",
"Points : 0",
"Range : 0.000000 - 0.000000",
"Step : 0.010000",
"Channel_info_end",
"Channel_info_start",
"Channel : Fe",
"Points : 0",
"Range : 0.000000 - 0.000000",
"Step : 0.010000",
"Channel_info_end",
"Channel_info_start",
"Channel : Cu",
"Points : 0",
"Range : 0.000000 - 0.000000",
"Step : 0.010000",
"Channel_info_end",
"Channel_info_start",
"Channel : Zn",
"Points : 0",
"Range : 0.000000 - 0.000000",
"Step : 0.010000",
"Channel_info_end",
"Channel_info_start",
"Channel : Sr",
"Points : 0",
"Range : 0.000000 - 0.000000",
"Step : 0.010000",
"Channel_info_end",
"Channel_info_start",
"Channel : Pb",
"Points : 0",
"Range : 0.000000 - 0.000000",
"Step : 0.010000",
"Channel_info_end",
"",
"Qualitative Result",
"--------------------------------------------------------------------------------",
"Element :  Bi, Ca, Rh",
"",
"Peak List",
"--------------------------------------------------------------------------------",
"Channel               Line        keV     Net Int.(cps/uA)",
"--------------------------------------------------------------------------------",
"Na                    ----         0.68     0.023",
"                      ----         0.80     0.017",
"                      ----         1.90     0.084",
"                      ----         2.21     0.053",
"                      BiMa         2.44     1.607",
"                      ----         2.77     0.127",
"                      ----         3.22     0.056",
"                      CaKa         3.68     0.287",
"                      CaKb         4.04     0.042",
"                      BiLL         9.41     0.340",
"                      BiLa        10.84     5.773",
"                      ----        11.73     0.081",
"                      BiLb4       12.68     0.114",
"                      BiLb1       13.01     3.867",
"                      ----        13.43     0.078",
"                      BiLg1       15.24     0.604",
"                      BiLg2       15.67     0.148",
"                      RhKaC       19.20     0.147",
"                      RhKa        20.07     0.135",
"--------------------------------------------------------------------------------",
"",
"Quantitative Result",
"--------------------------------------------------------------------------------",
"Analyte               Result             Std.Dev. Proc.-Calc. Line Intensity(cps/uA)",
"--------------------------------------------------------------------------------",
"====[No. 1 Layer]====< Layer1               >===============================",
"Layer1                   0.000 ug/cm2    -------- Flux       -------- --------",

File: CaF2 31497.20100525205958.csv
"Sample    : CaF2 31497",
"Operator  : luisf",
"Comment  : cubatao-g-policarbonato",
"Group     : kerr2007ag180cal_lt",
"Date       : 2010-05-25 20:55:44",
"",
"Mesurement Condition",
"------------------------------------------------------------------------------------",
"Instrument : 700HS2   Atmosphere : Vac.   Collimator : 10(mm)   Spin : No",
"------------------------------------------------------------------------------------",
"Analyte               TG kV   uA      FI Acq.(keV)  Anal.(keV)  Time(sec)     DT(%)",
"------------------------------------------------------------------------------------",
"Na                    Rh 50  548-Auto Al  0 - 20    0.8 - 1.2   Live -  179   16",
"",
"<Profile>",
"Channel_info_start",
"Channel : Na",
"Points : 2048",
"Range : 0.000000 - 20.48",
"Step : 0.010000",
"Channel_info_end",
"0",
"0",
"0",
"0",
"0",
"34",
"27",
"24",
"19",
"38",
"30",
"35",
"20",
"33",
"25",
"34",
"34",
"34",
"27",
"44",
"32",
"41",
"35",
"51",
"118",
"165",
"113",
"263",
"415",
"263",
"61",
"56",
"68",
"83",
"30",
"46",
"41",
"60",
"58",
"66",
"51",
"76",
"71",
"99",
"129",
"171",
"162",
"173",
"187",
"215",
"402",
"2956",
"18863",
"27517",
"7876",
"728",
"1170",
"3436",
"2595",
"566",
"68",
"69",
"78",
"91",
"120",
"104",
"85",
"86",
"83",
"88",
"76",
"73",
"72",
"84",
"76",
"88",
"70",
"74",
"82",
"91",
"88",
"90",
"97",
"111",
"99",
"109",
"136",
"143",
"155",
"157",
"208",
"301",
"251",
"177",
"176",
"171",
"186",
"186",
"216",
"221",
"229",
"226",
"199",
"212",
"222",
"185",
"185",
"210",
"198",
"180",
"199",
"199",
"188",
"245",
"297",
"492",
"634",
"574",
"312",
"222",
"210",
"229",
"228",
"300",
"261",
"188",
"183",
"182",
"188",
"190",
"205",
"220",
"349",
"413",
"431",
"288",
"294",
"296",
"251",
"251",
"195",
"186",
"148",
"172",
"186",
"206",
"183",
"183",
"194",
"200",
"161",
"199",
"199",
"193",
"218",
"224",
"234",
"221",
"183",
"187",
"205",
"157",
"167",
"169",
"159",
"172",
"176",
"159",
"169",
"149",
"171",
"184",
"166",
"159",
"153",
"161",
"150",
"161",
"154",
"157",
"162",
"159",
"130",
"170",
"164",
"150",
"164",
"160",
"138",
"148",
"157",
"167",
"174",
"139",
"120",
"148",
"151",
"139",
"126",
"126",
"152",
"142",
"132",
"139",
"137",
"132",
"137",
"141",
"132",
"126",
"143",
"114",
"127",
"130",
"123",
"146",
"119",
"137",
"125",
"135",
"126",
"137",
"125",
"114",
"132",
"125",
"122",
"137",
"117",
"115",
"108",
"102",
"129",
"108",
"102",
"130",
"132",
"127",
"123",
"119",
"114",
"115",
"113",
"112",
"117",
"107",
"115",
"106",
"106",
"134",
"126",
"115",
"103",
"123",
"117",
"120",
"118",
"114",
"118",
"138",
"134",
"119",
"135",
"143",
"162",
"145",
"189",
"261",
"290",
"351",
"476",
"591",
"705",
"781",
"764",
"774",
"709",
"568",
"458",
"356",
"264",
"228",
"172",
"190",
"193",
"269",
"359",
"319",
"323",
"194",
"140",
"118",
"116",
"54204",
"Channel_info_start",
"Channel : Mg",
"Points : 0",
"Range : 0.000000 - 0.000000",
"Step : 0.010000",
"Channel_info_end",
"Channel_info_start",
"Channel : Al",
"Points : 0",
"Range : 0.000000 - 0.000000",
"Step : 0.010000",
"Channel_info_end",
"Channel_info_start",
"Channel : Si",
"Points : 0",
"Range : 0.000000 - 0.000000",
"Step : 0.010000",
"Channel_info_end",
"Channel_info_start",
"Channel : P ",
"Points : 0",
"Range : 0.000000 - 0.000000",
"Step : 0.010000",
"Channel_info_end",
"Channel_info_start",
"Channel : S ",
"Points : 0",
"Range : 0.000000 - 0.000000",
"Step : 0.010000",
"Channel_info_end",
"Channel_info_start",
"Channel : Cl",
"Points : 0",
"Range : 0.000000 - 0.000000",
"Step : 0.010000",
"Channel_info_end",
"Channel_info_start",
"Channel : K ",
"Points : 0",
"Range : 0.000000 - 0.000000",
"Step : 0.010000",
"Channel_info_end",
"Channel_info_start",
"Channel : Ca",
"Points : 0",
"Range : 0.000000 - 0.000000",
"Step : 0.010000",
"Channel_info_end",
"Channel_info_start",
"Channel : Ti",
"Points : 0",
"Range : 0.000000 - 0.000000",
"Step : 0.010000",
"Channel_info_end",
"Channel_info_start",
"Channel : V ",
"Points : 0",
"Range : 0.000000 - 0.000000",
"Step : 0.010000",
"Channel_info_end",
"Channel_info_start",
"Channel : Cr",
"Points : 0",
"Range : 0.000000 - 0.000000",
"Step : 0.010000",
"Channel_info_end",
"Channel_info_start",
"Channel : Mn",
"Points : 0",
"Range : 0.000000 - 0.000000",
"Step : 0.010000",
"Channel_info_end",
"Channel_info_start",
"Channel : Fe",
"Points : 0",
"Range : 0.000000 - 0.000000",
"Step : 0.010000",
"Channel_info_end",
"Channel_info_start",
"Channel : Cu",
"Points : 0",
"Range : 0.000000 - 0.000000",
"Step : 0.010000",
"Channel_info_end",
"Channel_info_start",
"Channel : Zn",
"Points : 0",
"Range : 0.000000 - 0.000000",
"Step : 0.010000",
"Channel_info_end",
"Channel_info_start",
"Channel : Sr",
"Points : 0",
"Range : 0.000000 - 0.000000",
"Step : 0.010000",
"Channel_info_end",
"Channel_info_start",
"Channel : Pb",
"Points : 0",
"Range : 0.000000 - 0.000000",
"Step : 0.010000",
"Channel_info_end",
"",
"Qualitative Result",
"--------------------------------------------------------------------------------",
"Element :  Ta, P , Ca, Fe, Zn, Ru",
"",
"Peak List",
"--------------------------------------------------------------------------------",
"Channel               Line        keV     Net Int.(cps/uA)",
"--------------------------------------------------------------------------------",
"Na                    TaMa         1.74     0.017",
"                      P Ka         1.97     0.047",
"                      CaKa         3.68     4.025",
"                      CaKb         4.02     0.496",
"                      FeKa         6.36     0.023",
"                      TaLa         8.15     0.081",
"                      ZnKa         8.62     0.020",
"                      TaLb1        9.36     0.047",
"                      ZnKb         9.57     0.003",
"                      TaLb2        9.59     0.019",
"                      RuKa        19.15     0.123",
"                      ----        19.41     0.073",
"                      ----        20.02     0.047",
"--------------------------------------------------------------------------------",
"",
"Quantitative Result",
"--------------------------------------------------------------------------------",
"Analyte               Result             Std.Dev. Proc.-Calc. Line Intensity(cps/uA)",
"--------------------------------------------------------------------------------",
"====[No. 1 Layer]====< Layer1               >===============================",
"Layer1                   0.000 ug/cm2    -------- Flux       -------- --------",