Folder: mestrado_ifusp/inputs/edxCalibration/edx_raw/2010-06 (part 14)

File: SeF3 15754.20100525210408.csv
"Sample    : SeF3 15754",
"Operator  : luisf",
"Comment  : cubatao-g-policarbonato",
"Group     : kerr2007ag180cal_lt",
"Date       : 2010-05-25 20:59:56",
"",
"Mesurement Condition",
"------------------------------------------------------------------------------------",
"Instrument : 700HS2   Atmosphere : Vac.   Collimator : 10(mm)   Spin : No",
"------------------------------------------------------------------------------------",
"Analyte               TG kV   uA      FI Acq.(keV)  Anal.(keV)  Time(sec)     DT(%)",
"------------------------------------------------------------------------------------",
"Na                    Rh 50  548-Auto Al  0 - 20    0.8 - 1.2   Live -  180   15",
"",
"<Profile>",
"Channel_info_start",
"Channel : Na",
"Points : 2048",
"Range : 0.000000 - 20.48",
"Step : 0.010000",
"Channel_info_end",
"0",
"0",
"0",
"0",
"2",
"22",
"27",
"37",
"28",
"37",
"32",
"26",
"32",
"32",
"32",
"32",
"24",
"37",
"26",
"33",
"29",
"35",
"32",
"32",
"39",
"77",
"35",
"60",
"101",
"114",
"60",
"33",
"64",
"240",
"189",
"51",
"20",
"27",
"60",
"69",
"32",
"49",
"42",
"20",
"34",
"59",
"84",
"145",
"117",
"115",
"139",
"317",
"979",
"1323",
"522",
"272",
"628",
"5802",
"21036",
"18958",
"3739",
"320",
"538",
"2364",
"3113",
"1172",
"193",
"112",
"69",
"63",
"75",
"75",
"70",
"86",
"77",
"72",
"95",
"95",
"85",
"98",
"119",
"105",
"112",
"135",
"109",
"112",
"133",
"155",
"151",
"140",
"161",
"177",
"210",
"201",
"163",
"173",
"187",
"216",
"210",
"196",
"179",
"208",
"158",
"209",
"173",
"181",
"184",
"187",
"170",
"172",
"170",
"198",
"200",
"243",
"261",
"308",
"290",
"243",
"197",
"179",
"188",
"241",
"250",
"279",
"292",
"236",
"217",
"195",
"199",
"184",
"181",
"199",
"198",
"220",
"194",
"206",
"212",
"183",
"209",
"218",
"199",
"201",
"181",
"191",
"161",
"158",
"167",
"186",
"183",
"194",
"183",
"204",
"172",
"175",
"192",
"201",
"172",
"175",
"193",
"173",
"170",
"179",
"158",
"172",
"192",
"177",
"186",
"206",
"161",
"193",
"162",
"188",
"167",
"164",
"150",
"175",
"183",
"160",
"135",
"140",
"157",
"140",
"162",
"159",
"140",
"175",
"168",
"177",
"138",
"156",
"164",
"152",
"155",
"140",
"133",
"146",
"155",
"146",
"124",
"160",
"150",
"145",
"159",
"151",
"162",
"134",
"148",
"122",
"134",
"125",
"132",
"122",
"149",
"146",
"124",
"151",
"134",
"127",
"127",
"133",
"123",
"139",
"142",
"139",
"119",
"111",
"128",
"121",
"123",
"113",
"122",
"117",
"124",
"126",
"111",
"115",
"117",
"126",
"105",
"103",
"123",
"126",
"111",
"120",
"97",
"99",
"113",
"115",
"128",
"128",
"97",
"115",
"117",
"118",
"113",
"105",
"112",
"106",
"115",
"130",
"150",
"117",
"140",
"144",
"184",
"181",
"179",
"232",
"311",
"353",
"480",
"620",
"745",
"809",
"851",
"843",
"719",
"588",
"468",
"365",
"274",
"195",
"176",
"179",
"218",
"258",
"286",
"342",
"308",
"192",
"125",
"99",
"119",
"56652",
"Channel_info_start",
"Channel : Mg",
"Points : 0",
"Range : 0.000000 - 0.000000",
"Step : 0.010000",
"Channel_info_end",
"Channel_info_start",
"Channel : Al",
"Points : 0",
"Range : 0.000000 - 0.000000",
"Step : 0.010000",
"Channel_info_end",
"Channel_info_start",
"Channel : Si",
"Points : 0",
"Range : 0.000000 - 0.000000",
"Step : 0.010000",
"Channel_info_end",
"Channel_info_start",
"Channel : P ",
"Points : 0",
"Range : 0.000000 - 0.000000",
"Step : 0.010000",
"Channel_info_end",
"Channel_info_start",
"Channel : S ",
"Points : 0",
"Range : 0.000000 - 0.000000",
"Step : 0.010000",
"Channel_info_end",
"Channel_info_start",
"Channel : Cl",
"Points : 0",
"Range : 0.000000 - 0.000000",
"Step : 0.010000",
"Channel_info_end",
"Channel_info_start",
"Channel : K ",
"Points : 0",
"Range : 0.000000 - 0.000000",
"Step : 0.010000",
"Channel_info_end",
"Channel_info_start",
"Channel : Ca",
"Points : 0",
"Range : 0.000000 - 0.000000",
"Step : 0.010000",
"Channel_info_end",
"Channel_info_start",
"Channel : Ti",
"Points : 0",
"Range : 0.000000 - 0.000000",
"Step : 0.010000",
"Channel_info_end",
"Channel_info_start",
"Channel : V ",
"Points : 0",
"Range : 0.000000 - 0.000000",
"Step : 0.010000",
"Channel_info_end",
"Channel_info_start",
"Channel : Cr",
"Points : 0",
"Range : 0.000000 - 0.000000",
"Step : 0.010000",
"Channel_info_end",
"Channel_info_start",
"Channel : Mn",
"Points : 0",
"Range : 0.000000 - 0.000000",
"Step : 0.010000",
"Channel_info_end",
"Channel_info_start",
"Channel : Fe",
"Points : 0",
"Range : 0.000000 - 0.000000",
"Step : 0.010000",
"Channel_info_end",
"Channel_info_start",
"Channel : Cu",
"Points : 0",
"Range : 0.000000 - 0.000000",
"Step : 0.010000",
"Channel_info_end",
"Channel_info_start",
"Channel : Zn",
"Points : 0",
"Range : 0.000000 - 0.000000",
"Step : 0.010000",
"Channel_info_end",
"Channel_info_start",
"Channel : Sr",
"Points : 0",
"Range : 0.000000 - 0.000000",
"Step : 0.010000",
"Channel_info_end",
"Channel_info_start",
"Channel : Pb",
"Points : 0",
"Range : 0.000000 - 0.000000",
"Step : 0.010000",
"Channel_info_end",
"",
"Qualitative Result",
"--------------------------------------------------------------------------------",
"Element :  P , Sc, Ca, Ru",
"",
"Peak List",
"--------------------------------------------------------------------------------",
"Channel               Line        keV     Net Int.(cps/uA)",
"--------------------------------------------------------------------------------",
"Na                    P Ka         2.00     0.013",
"                      ScKaESC      2.32     0.028",
"                      CaKa         3.68     0.173",
"                      CaKb         4.01     0.024",
"                      ScKa         4.09     3.497",
"                      ScKb         4.46     0.450",
"                      ----         8.06     0.019",
"                      RuKa        19.16     0.137",
"                      ----        19.46     0.057",
"--------------------------------------------------------------------------------",
"",
"Quantitative Result",
"--------------------------------------------------------------------------------",
"Analyte               Result             Std.Dev. Proc.-Calc. Line Intensity(cps/uA)",
"--------------------------------------------------------------------------------",
"====[No. 1 Layer]====< Layer1               >===============================",
"Layer1                   0.000 ug/cm2    -------- Flux       -------- --------",

File: SiO 15752.20100611002720.csv
"Sample    : SiO 15752",
"Operator  : thiago",
"Comment  : cubatao-g-policarbonato",
"Group     : kerr2007ag180cal_lt",
"Date       : 2010-06-11 00:23:10",
"",
"Mesurement Condition",
"------------------------------------------------------------------------------------",
"Instrument : 700HS2   Atmosphere : Vac.   Collimator : 10(mm)   Spin : No",
"------------------------------------------------------------------------------------",
"Analyte               TG kV   uA      FI Acq.(keV)  Anal.(keV)  Time(sec)     DT(%)",
"------------------------------------------------------------------------------------",
"Na                    Rh 50  970-Auto Al  0 - 20    0.8 - 1.2   Live -  179   14",
"",
"<Profile>",
"Channel_info_start",
"Channel : Na",
"Points : 2048",
"Range : 0.000000 - 20.48",
"Step : 0.010000",
"Channel_info_end",
"0",
"0",
"0",
"0",
"0",
"55",
"45",
"43",
"52",
"46",
"46",
"40",
"52",
"37",
"46",
"38",
"38",
"61",
"55",
"53",
"63",
"75",
"92",
"257",
"3150",
"6666",
"1719",
"221",
"160",
"209",
"57",
"41",
"41",
"44",
"29",
"17",
"30",
"39",
"56",
"55",
"56",
"55",
"36",
"39",
"32",
"42",
"32",
"49",
"50",
"52",
"79",
"426",
"1582",
"2095",
"667",
"205",
"214",
"363",
"252",
"130",
"69",
"78",
"120",
"136",
"166",
"210",
"161",
"155",
"155",
"156",
"120",
"116",
"133",
"137",
"143",
"160",
"150",
"170",
"175",
"197",
"163",
"204",
"179",
"191",
"206",
"223",
"243",
"272",
"251",
"291",
"295",
"343",
"315",
"317",
"278",
"277",
"295",
"316",
"299",
"323",
"316",
"346",
"286",
"278",
"267",
"333",
"296",
"316",
"308",
"315",
"274",
"326",
"336",
"331",
"409",
"365",
"352",
"347",
"323",
"320",
"328",
"361",
"419",
"537",
"418",
"387",
"307",
"323",
"310",
"311",
"311",
"325",
"323",
"318",
"302",
"316",
"347",
"346",
"314",
"311",
"329",
"320",
"333",
"349",
"311",
"311",
"293",
"345",
"352",
"344",
"294",
"342",
"306",
"347",
"286",
"320",
"317",
"306",
"302",
"330",
"331",
"312",
"294",
"325",
"276",
"319",
"292",
"324",
"283",
"299",
"252",
"316",
"259",
"291",
"290",
"286",
"283",
"292",
"259",
"296",
"243",
"281",
"253",
"244",
"272",
"285",
"275",
"263",
"255",
"238",
"251",
"261",
"278",
"223",
"270",
"238",
"241",
"272",
"266",
"242",
"229",
"242",
"239",
"246",
"279",
"252",
"214",
"237",
"230",
"230",
"229",
"252",
"230",
"216",
"202",
"243",
"225",
"202",
"212",
"215",
"224",
"206",
"223",
"211",
"218",
"194",
"203",
"219",
"221",
"206",
"203",
"185",
"221",
"187",
"212",
"221",
"174",
"184",
"200",
"196",
"190",
"205",
"182",
"191",
"184",
"194",
"169",
"203",
"198",
"174",
"209",
"200",
"212",
"211",
"202",
"196",
"210",
"240",
"239",
"227",
"231",
"218",
"230",
"249",
"267",
"317",
"321",
"428",
"495",
"670",
"847",
"1076",
"1263",
"1281",
"1395",
"1414",
"1248",
"950",
"804",
"605",
"471",
"354",
"280",
"320",
"349",
"402",
"530",
"546",
"518",
"351",
"257",
"194",
"179",
"95473",
"Channel_info_start",
"Channel : Mg",
"Points : 0",
"Range : 0.000000 - 0.000000",
"Step : 0.010000",
"Channel_info_end",
"Channel_info_start",
"Channel : Al",
"Points : 0",
"Range : 0.000000 - 0.000000",
"Step : 0.010000",
"Channel_info_end",
"Channel_info_start",
"Channel : Si",
"Points : 0",
"Range : 0.000000 - 0.000000",
"Step : 0.010000",
"Channel_info_end",
"Channel_info_start",
"Channel : P ",
"Points : 0",
"Range : 0.000000 - 0.000000",
"Step : 0.010000",
"Channel_info_end",
"Channel_info_start",
"Channel : S ",
"Points : 0",
"Range : 0.000000 - 0.000000",
"Step : 0.010000",
"Channel_info_end",
"Channel_info_start",
"Channel : Cl",
"Points : 0",
"Range : 0.000000 - 0.000000",
"Step : 0.010000",
"Channel_info_end",
"Channel_info_start",
"Channel : K ",
"Points : 0",
"Range : 0.000000 - 0.000000",
"Step : 0.010000",
"Channel_info_end",
"Channel_info_start",
"Channel : Ca",
"Points : 0",
"Range : 0.000000 - 0.000000",
"Step : 0.010000",
"Channel_info_end",
"Channel_info_start",
"Channel : Ti",
"Points : 0",
"Range : 0.000000 - 0.000000",
"Step : 0.010000",
"Channel_info_end",
"Channel_info_start",
"Channel : V ",
"Points : 0",
"Range : 0.000000 - 0.000000",
"Step : 0.010000",
"Channel_info_end",
"Channel_info_start",
"Channel : Cr",
"Points : 0",
"Range : 0.000000 - 0.000000",
"Step : 0.010000",
"Channel_info_end",
"Channel_info_start",
"Channel : Mn",
"Points : 0",
"Range : 0.000000 - 0.000000",
"Step : 0.010000",
"Channel_info_end",
"Channel_info_start",
"Channel : Fe",
"Points : 0",
"Range : 0.000000 - 0.000000",
"Step : 0.010000",
"Channel_info_end",
"Channel_info_start",
"Channel : Cu",
"Points : 0",
"Range : 0.000000 - 0.000000",
"Step : 0.010000",
"Channel_info_end",
"Channel_info_start",
"Channel : Zn",
"Points : 0",
"Range : 0.000000 - 0.000000",
"Step : 0.010000",
"Channel_info_end",
"Channel_info_start",
"Channel : Sr",
"Points : 0",
"Range : 0.000000 - 0.000000",
"Step : 0.010000",
"Channel_info_end",
"Channel_info_start",
"Channel : Pb",
"Points : 0",
"Range : 0.000000 - 0.000000",
"Step : 0.010000",
"Channel_info_end",
"",
"Qualitative Result",
"--------------------------------------------------------------------------------",
"Element :  Si, P , Ca, Rh",
"",
"Peak List",
"--------------------------------------------------------------------------------",
"Channel               Line        keV     Net Int.(cps/uA)",
"--------------------------------------------------------------------------------",
"Na                    SiKa         1.74     0.431",
"                      P Ka         2.00     0.011",
"                      CaKa         3.68     0.162",
"                      CaKb         4.02     0.020",
"                      ----         4.56     0.008",
"                      ----         8.64     0.017",
"                      RhKaC       19.17     0.131",
"                      ----        19.45     0.056",
"                      RhKa        20.07     0.042",
"--------------------------------------------------------------------------------",
"",
"Quantitative Result",
"--------------------------------------------------------------------------------",
"Analyte               Result             Std.Dev. Proc.-Calc. Line Intensity(cps/uA)",
"--------------------------------------------------------------------------------",
"====[No. 1 Layer]====< Layer1               >===============================",
"Layer1                   0.000 ug/cm2    -------- Flux       -------- --------",

File: SrF2 15761.20100611020701.csv
"Sample    : SrF2 15761",
"Operator  : Luís",
"Comment  : cubatao-g-policarbonato",
"Group     : kerr2007ag180cal_lt",
"Date       : 2010-06-11 02:02:57",
"",
"Mesurement Condition",
"------------------------------------------------------------------------------------",
"Instrument : 700HS2   Atmosphere : Vac.   Collimator : 10(mm)   Spin : No",
"------------------------------------------------------------------------------------",
"Analyte               TG kV   uA      FI Acq.(keV)  Anal.(keV)  Time(sec)     DT(%)",
"------------------------------------------------------------------------------------",
"Na                    Rh 50  237-Auto Al  0 - 20    0.8 - 1.2   Live -  179   15",
"",
"<Profile>",
"Channel_info_start",
"Channel : Na",
"Points : 2048",
"Range : 0.000000 - 20.48",
"Step : 0.010000",
"Channel_info_end",
"0",
"0",
"0",
"0",
"0",
"30",
"32",
"39",
"25",
"37",
"50",
"14",
"27",
"26",
"19",
"24",
"23",
"22",
"19",
"22",
"22",
"37",
"78",
"136",
"168",
"921",
"2074",
"1301",
"411",
"114",
"35",
"22",
"29",
"26",
"17",
"15",
"14",
"22",
"21",
"15",
"18",
"15",
"16",
"14",
"12",
"17",
"16",
"12",
"21",
"25",
"24",
"72",
"378",
"586",
"160",
"70",
"54",
"92",
"67",
"37",
"21",
"31",
"23",
"37",
"47",
"41",
"56",
"54",
"43",
"43",
"45",
"34",
"30",
"34",
"45",
"50",
"37",
"61",
"38",
"44",
"44",
"50",
"64",
"71",
"81",
"88",
"76",
"81",
"75",
"85",
"75",
"102",
"95",
"95",
"103",
"93",
"108",
"92",
"72",
"105",
"84",
"77",
"71",
"83",
"93",
"83",
"89",
"89",
"90",
"83",
"98",
"102",
"120",
"117",
"156",
"211",
"214",
"207",
"100",
"101",
"91",
"113",
"110",
"128",
"142",
"96",
"70",
"105",
"106",
"100",
"85",
"106",
"123",
"167",
"141",
"114",
"115",
"113",
"127",
"107",
"100",
"107",
"94",
"96",
"97",
"87",
"96",
"108",
"100",
"83",
"93",
"89",
"98",
"96",
"101",
"94",
"90",
"89",
"98",
"92",
"102",
"95",
"85",
"100",
"84",
"82",
"102",
"85",
"96",
"91",
"74",
"82",
"66",
"90",
"71",
"83",
"81",
"89",
"93",
"98",
"92",
"69",
"83",
"84",
"69",
"78",
"65",
"61",
"63",
"82",
"90",
"76",
"104",
"118",
"101",
"119",
"127",
"207",
"815",
"3193",
"8451",
"14495",
"15581",
"11966",
"5394",
"1622",
"341",
"160",
"111",
"91",
"80",
"69",
"61",
"67",
"79",
"98",
"92",
"113",
"97",
"104",
"93",
"111",
"207",
"559",
"1267",
"2243",
"2570",
"2038",
"1178",
"679",
"431",
"267",
"149",
"65",
"60",
"50",
"63",
"54",
"54",
"40",
"58",
"48",
"38",
"44",
"49",
"51",
"55",
"48",
"57",
"49",
"44",
"57",
"54",
"45",
"65",
"47",
"64",
"65",
"62",
"62",
"58",
"56",
"68",
"76",
"63",
"77",
"96",
"103",
"126",
"164",
"224",
"259",
"328",
"303",
"342",
"333",
"294",
"239",
"179",
"141",
"126",
"103",
"72",
"79",
"98",
"135",
"157",
"181",
"157",
"137",
"84",
"54",
"63",
"25917",
"Channel_info_start",
"Channel : Mg",
"Points : 0",
"Range : 0.000000 - 0.000000",
"Step : 0.010000",
"Channel_info_end",
"Channel_info_start",
"Channel : Al",
"Points : 0",
"Range : 0.000000 - 0.000000",
"Step : 0.010000",
"Channel_info_end",
"Channel_info_start",
"Channel : Si",
"Points : 0",
"Range : 0.000000 - 0.000000",
"Step : 0.010000",
"Channel_info_end",
"Channel_info_start",
"Channel : P ",
"Points : 0",
"Range : 0.000000 - 0.000000",
"Step : 0.010000",
"Channel_info_end",
"Channel_info_start",
"Channel : S ",
"Points : 0",
"Range : 0.000000 - 0.000000",
"Step : 0.010000",
"Channel_info_end",
"Channel_info_start",
"Channel : Cl",
"Points : 0",
"Range : 0.000000 - 0.000000",
"Step : 0.010000",
"Channel_info_end",
"Channel_info_start",
"Channel : K ",
"Points : 0",
"Range : 0.000000 - 0.000000",
"Step : 0.010000",
"Channel_info_end",
"Channel_info_start",
"Channel : Ca",
"Points : 0",
"Range : 0.000000 - 0.000000",
"Step : 0.010000",
"Channel_info_end",
"Channel_info_start",
"Channel : Ti",
"Points : 0",
"Range : 0.000000 - 0.000000",
"Step : 0.010000",
"Channel_info_end",
"Channel_info_start",
"Channel : V ",
"Points : 0",
"Range : 0.000000 - 0.000000",
"Step : 0.010000",
"Channel_info_end",
"Channel_info_start",
"Channel : Cr",
"Points : 0",
"Range : 0.000000 - 0.000000",
"Step : 0.010000",
"Channel_info_end",
"Channel_info_start",
"Channel : Mn",
"Points : 0",
"Range : 0.000000 - 0.000000",
"Step : 0.010000",
"Channel_info_end",
"Channel_info_start",
"Channel : Fe",
"Points : 0",
"Range : 0.000000 - 0.000000",
"Step : 0.010000",
"Channel_info_end",
"Channel_info_start",
"Channel : Cu",
"Points : 0",
"Range : 0.000000 - 0.000000",
"Step : 0.010000",
"Channel_info_end",
"Channel_info_start",
"Channel : Zn",
"Points : 0",
"Range : 0.000000 - 0.000000",
"Step : 0.010000",
"Channel_info_end",
"Channel_info_start",
"Channel : Sr",
"Points : 0",
"Range : 0.000000 - 0.000000",
"Step : 0.010000",
"Channel_info_end",
"Channel_info_start",
"Channel : Pb",
"Points : 0",
"Range : 0.000000 - 0.000000",
"Step : 0.010000",
"Channel_info_end",
"",
"Qualitative Result",
"--------------------------------------------------------------------------------",
"Element :  Sr, Ca, Ta, Ru",
"",
"Peak List",
"--------------------------------------------------------------------------------",
"Channel               Line        keV     Net Int.(cps/uA)",
"--------------------------------------------------------------------------------",
"Na                    ----         1.59     0.032",
"                      SrLa         1.82     0.575",
"                      CaKa         3.68     0.188",
"                      CaKb         4.00     0.027",
"                      TaLa         8.13     0.059",
"                      TaLb1        9.36     0.033",
"                      SrKa        14.12     7.936",
"                      SrKb        15.81     1.252",
"                      ----        16.14     0.117",
"                      RuKa        19.24     0.120",
"                      ----        19.49     0.039",
"                      ----        20.01     0.055",
"--------------------------------------------------------------------------------",
"",
"Quantitative Result",
"--------------------------------------------------------------------------------",
"Analyte               Result             Std.Dev. Proc.-Calc. Line Intensity(cps/uA)",
"--------------------------------------------------------------------------------",
"====[No. 1 Layer]====< Layer1               >===============================",
"Layer1                   0.000 ug/cm2    -------- Flux       -------- --------",