Folder: mestrado_ifusp/inputs/edxCalibration/edx_raw/2010-06 (part 2)

File: BaF2 31515.20100526004721.csv
"Sample    : BaF2 31515",
"Operator  : luisf",
"Comment  : cubatao-g-policarbonato",
"Group     : kerr2007ag180cal_lt",
"Date       : 2010-05-26 00:43:09",
"",
"Mesurement Condition",
"------------------------------------------------------------------------------------",
"Instrument : 700HS2   Atmosphere : Vac.   Collimator : 10(mm)   Spin : No",
"------------------------------------------------------------------------------------",
"Analyte               TG kV   uA      FI Acq.(keV)  Anal.(keV)  Time(sec)     DT(%)",
"------------------------------------------------------------------------------------",
"Na                    Rh 50  393-Auto Al  0 - 20    0.8 - 1.2   Live -  179   15",
"",
"<Profile>",
"Channel_info_start",
"Channel : Na",
"Points : 2048",
"Range : 0.000000 - 20.48",
"Step : 0.010000",
"Channel_info_end",
"0",
"0",
"0",
"0",
"1",
"28",
"31",
"32",
"34",
"37",
"38",
"49",
"61",
"52",
"43",
"82",
"31",
"37",
"26",
"35",
"44",
"45",
"25",
"37",
"46",
"59",
"48",
"50",
"97",
"115",
"58",
"35",
"41",
"35",
"27",
"32",
"40",
"50",
"102",
"164",
"69",
"46",
"44",
"69",
"105",
"82",
"64",
"49",
"67",
"73",
"75",
"232",
"1033",
"1459",
"532",
"253",
"625",
"818",
"405",
"200",
"205",
"351",
"1817",
"9929",
"14887",
"5806",
"713",
"797",
"4595",
"9808",
"6487",
"2494",
"990",
"1989",
"2240",
"988",
"250",
"258",
"755",
"1400",
"784",
"344",
"590",
"768",
"424",
"273",
"222",
"155",
"140",
"111",
"164",
"179",
"167",
"170",
"144",
"159",
"158",
"132",
"117",
"141",
"155",
"152",
"123",
"143",
"175",
"167",
"169",
"164",
"152",
"179",
"159",
"206",
"176",
"205",
"203",
"215",
"211",
"198",
"155",
"157",
"159",
"150",
"175",
"237",
"203",
"202",
"175",
"185",
"189",
"174",
"168",
"186",
"201",
"209",
"207",
"171",
"178",
"185",
"171",
"149",
"153",
"151",
"147",
"180",
"137",
"169",
"143",
"174",
"163",
"149",
"146",
"166",
"162",
"168",
"132",
"166",
"151",
"169",
"141",
"158",
"143",
"151",
"151",
"173",
"153",
"158",
"149",
"163",
"139",
"133",
"111",
"116",
"128",
"124",
"141",
"144",
"127",
"139",
"138",
"131",
"127",
"143",
"138",
"127",
"128",
"138",
"122",
"106",
"126",
"145",
"97",
"115",
"131",
"114",
"108",
"142",
"132",
"117",
"112",
"117",
"129",
"126",
"141",
"162",
"112",
"129",
"109",
"111",
"123",
"97",
"112",
"108",
"110",
"96",
"96",
"112",
"124",
"87",
"119",
"116",
"109",
"96",
"90",
"117",
"106",
"107",
"92",
"99",
"90",
"117",
"91",
"106",
"94",
"90",
"104",
"73",
"93",
"80",
"63",
"83",
"84",
"109",
"107",
"84",
"117",
"91",
"96",
"105",
"83",
"100",
"100",
"84",
"92",
"87",
"97",
"90",
"95",
"106",
"96",
"88",
"99",
"94",
"108",
"121",
"130",
"131",
"140",
"186",
"217",
"260",
"277",
"446",
"462",
"538",
"531",
"563",
"497",
"436",
"302",
"258",
"202",
"153",
"135",
"143",
"200",
"280",
"307",
"351",
"313",
"218",
"111",
"90",
"95",
"54917",
"Channel_info_start",
"Channel : Mg",
"Points : 0",
"Range : 0.000000 - 0.000000",
"Step : 0.010000",
"Channel_info_end",
"Channel_info_start",
"Channel : Al",
"Points : 0",
"Range : 0.000000 - 0.000000",
"Step : 0.010000",
"Channel_info_end",
"Channel_info_start",
"Channel : Si",
"Points : 0",
"Range : 0.000000 - 0.000000",
"Step : 0.010000",
"Channel_info_end",
"Channel_info_start",
"Channel : P ",
"Points : 0",
"Range : 0.000000 - 0.000000",
"Step : 0.010000",
"Channel_info_end",
"Channel_info_start",
"Channel : S ",
"Points : 0",
"Range : 0.000000 - 0.000000",
"Step : 0.010000",
"Channel_info_end",
"Channel_info_start",
"Channel : Cl",
"Points : 0",
"Range : 0.000000 - 0.000000",
"Step : 0.010000",
"Channel_info_end",
"Channel_info_start",
"Channel : K ",
"Points : 0",
"Range : 0.000000 - 0.000000",
"Step : 0.010000",
"Channel_info_end",
"Channel_info_start",
"Channel : Ca",
"Points : 0",
"Range : 0.000000 - 0.000000",
"Step : 0.010000",
"Channel_info_end",
"Channel_info_start",
"Channel : Ti",
"Points : 0",
"Range : 0.000000 - 0.000000",
"Step : 0.010000",
"Channel_info_end",
"Channel_info_start",
"Channel : V ",
"Points : 0",
"Range : 0.000000 - 0.000000",
"Step : 0.010000",
"Channel_info_end",
"Channel_info_start",
"Channel : Cr",
"Points : 0",
"Range : 0.000000 - 0.000000",
"Step : 0.010000",
"Channel_info_end",
"Channel_info_start",
"Channel : Mn",
"Points : 0",
"Range : 0.000000 - 0.000000",
"Step : 0.010000",
"Channel_info_end",
"Channel_info_start",
"Channel : Fe",
"Points : 0",
"Range : 0.000000 - 0.000000",
"Step : 0.010000",
"Channel_info_end",
"Channel_info_start",
"Channel : Cu",
"Points : 0",
"Range : 0.000000 - 0.000000",
"Step : 0.010000",
"Channel_info_end",
"Channel_info_start",
"Channel : Zn",
"Points : 0",
"Range : 0.000000 - 0.000000",
"Step : 0.010000",
"Channel_info_end",
"Channel_info_start",
"Channel : Sr",
"Points : 0",
"Range : 0.000000 - 0.000000",
"Step : 0.010000",
"Channel_info_end",
"Channel_info_start",
"Channel : Pb",
"Points : 0",
"Range : 0.000000 - 0.000000",
"Step : 0.010000",
"Channel_info_end",
"",
"Qualitative Result",
"--------------------------------------------------------------------------------",
"Element :  P , Ba, Ca, Te, Pr",
"",
"Peak List",
"--------------------------------------------------------------------------------",
"Channel               Line        keV     Net Int.(cps/uA)",
"--------------------------------------------------------------------------------",
"Na                    P Ka         1.98     0.021",
"                      BaLaESC      2.70     0.024",
"                      BaLb1ESC     3.08     0.012",
"                      CaKa         3.68     0.282",
"                      BaLL         3.96     0.092",
"                      TeLb1        3.96     0.043",
"                      BaLa         4.47     3.059",
"                      BaLb1        4.84     1.969",
"                      BaLb2        5.16     0.464",
"                      BaLg1        5.54     0.184",
"                      PrLb1        5.54     0.057",
"                      BaLg2        5.81     0.123",
"                      ----        19.13     0.122",
"                      ----        19.51     0.035",
"--------------------------------------------------------------------------------",
"",
"Quantitative Result",
"--------------------------------------------------------------------------------",
"Analyte               Result             Std.Dev. Proc.-Calc. Line Intensity(cps/uA)",
"--------------------------------------------------------------------------------",
"====[No. 1 Layer]====< Layer1               >===============================",
"Layer1                   0.000 ug/cm2    -------- Flux       -------- --------",

File: BaF2 31515.20100611034049.csv
"Sample    : BaF2 31515",
"Operator  : Luís",
"Comment  : cubatao-g-policarbonato",
"Group     : kerr2007ag180cal_lt",
"Date       : 2010-06-11 03:36:36",
"",
"Mesurement Condition",
"------------------------------------------------------------------------------------",
"Instrument : 700HS2   Atmosphere : Vac.   Collimator : 10(mm)   Spin : No",
"------------------------------------------------------------------------------------",
"Analyte               TG kV   uA      FI Acq.(keV)  Anal.(keV)  Time(sec)     DT(%)",
"------------------------------------------------------------------------------------",
"Na                    Rh 50  393-Auto Al  0 - 20    0.8 - 1.2   Live -  180   15",
"",
"<Profile>",
"Channel_info_start",
"Channel : Na",
"Points : 2048",
"Range : 0.000000 - 20.48",
"Step : 0.010000",
"Channel_info_end",
"0",
"0",
"0",
"0",
"0",
"26",
"36",
"25",
"23",
"33",
"36",
"63",
"69",
"34",
"54",
"60",
"34",
"24",
"36",
"35",
"30",
"37",
"35",
"36",
"57",
"55",
"46",
"49",
"95",
"121",
"48",
"32",
"40",
"37",
"32",
"31",
"26",
"48",
"111",
"189",
"74",
"42",
"54",
"79",
"99",
"94",
"38",
"51",
"54",
"84",
"73",
"235",
"1078",
"1467",
"497",
"263",
"712",
"811",
"382",
"210",
"201",
"406",
"1963",
"10479",
"15213",
"5529",
"675",
"863",
"4784",
"9847",
"6442",
"2525",
"1061",
"2025",
"2334",
"911",
"247",
"292",
"776",
"1313",
"754",
"309",
"616",
"776",
"445",
"247",
"181",
"164",
"139",
"146",
"175",
"161",
"172",
"162",
"166",
"141",
"137",
"138",
"127",
"129",
"146",
"144",
"134",
"151",
"170",
"182",
"158",
"176",
"194",
"188",
"163",
"188",
"176",
"201",
"215",
"234",
"223",
"213",
"144",
"173",
"127",
"157",
"215",
"240",
"211",
"169",
"170",
"180",
"185",
"196",
"182",
"176",
"153",
"224",
"174",
"186",
"222",
"201",
"146",
"163",
"155",
"164",
"145",
"156",
"127",
"127",
"156",
"153",
"150",
"160",
"146",
"140",
"146",
"167",
"166",
"186",
"152",
"172",
"158",
"165",
"144",
"149",
"152",
"144",
"151",
"145",
"128",
"137",
"138",
"142",
"135",
"146",
"130",
"119",
"135",
"162",
"118",
"137",
"157",
"137",
"133",
"133",
"143",
"150",
"157",
"134",
"117",
"145",
"133",
"111",
"107",
"130",
"107",
"131",
"132",
"134",
"114",
"114",
"125",
"131",
"126",
"143",
"115",
"134",
"119",
"115",
"115",
"114",
"116",
"91",
"128",
"107",
"120",
"118",
"110",
"109",
"114",
"123",
"87",
"110",
"90",
"110",
"94",
"99",
"98",
"114",
"103",
"107",
"109",
"116",
"85",
"96",
"110",
"87",
"83",
"83",
"104",
"76",
"87",
"104",
"109",
"95",
"86",
"97",
"93",
"98",
"93",
"93",
"111",
"78",
"107",
"92",
"87",
"91",
"95",
"89",
"101",
"92",
"92",
"110",
"91",
"102",
"110",
"111",
"109",
"153",
"131",
"176",
"228",
"253",
"321",
"441",
"462",
"570",
"534",
"630",
"495",
"415",
"303",
"261",
"202",
"163",
"132",
"164",
"202",
"266",
"368",
"412",
"339",
"213",
"121",
"82",
"78",
"56130",
"Channel_info_start",
"Channel : Mg",
"Points : 0",
"Range : 0.000000 - 0.000000",
"Step : 0.010000",
"Channel_info_end",
"Channel_info_start",
"Channel : Al",
"Points : 0",
"Range : 0.000000 - 0.000000",
"Step : 0.010000",
"Channel_info_end",
"Channel_info_start",
"Channel : Si",
"Points : 0",
"Range : 0.000000 - 0.000000",
"Step : 0.010000",
"Channel_info_end",
"Channel_info_start",
"Channel : P ",
"Points : 0",
"Range : 0.000000 - 0.000000",
"Step : 0.010000",
"Channel_info_end",
"Channel_info_start",
"Channel : S ",
"Points : 0",
"Range : 0.000000 - 0.000000",
"Step : 0.010000",
"Channel_info_end",
"Channel_info_start",
"Channel : Cl",
"Points : 0",
"Range : 0.000000 - 0.000000",
"Step : 0.010000",
"Channel_info_end",
"Channel_info_start",
"Channel : K ",
"Points : 0",
"Range : 0.000000 - 0.000000",
"Step : 0.010000",
"Channel_info_end",
"Channel_info_start",
"Channel : Ca",
"Points : 0",
"Range : 0.000000 - 0.000000",
"Step : 0.010000",
"Channel_info_end",
"Channel_info_start",
"Channel : Ti",
"Points : 0",
"Range : 0.000000 - 0.000000",
"Step : 0.010000",
"Channel_info_end",
"Channel_info_start",
"Channel : V ",
"Points : 0",
"Range : 0.000000 - 0.000000",
"Step : 0.010000",
"Channel_info_end",
"Channel_info_start",
"Channel : Cr",
"Points : 0",
"Range : 0.000000 - 0.000000",
"Step : 0.010000",
"Channel_info_end",
"Channel_info_start",
"Channel : Mn",
"Points : 0",
"Range : 0.000000 - 0.000000",
"Step : 0.010000",
"Channel_info_end",
"Channel_info_start",
"Channel : Fe",
"Points : 0",
"Range : 0.000000 - 0.000000",
"Step : 0.010000",
"Channel_info_end",
"Channel_info_start",
"Channel : Cu",
"Points : 0",
"Range : 0.000000 - 0.000000",
"Step : 0.010000",
"Channel_info_end",
"Channel_info_start",
"Channel : Zn",
"Points : 0",
"Range : 0.000000 - 0.000000",
"Step : 0.010000",
"Channel_info_end",
"Channel_info_start",
"Channel : Sr",
"Points : 0",
"Range : 0.000000 - 0.000000",
"Step : 0.010000",
"Channel_info_end",
"Channel_info_start",
"Channel : Pb",
"Points : 0",
"Range : 0.000000 - 0.000000",
"Step : 0.010000",
"Channel_info_end",
"",
"Qualitative Result",
"--------------------------------------------------------------------------------",
"Element :  P , Ba, Ca, Te, Pr",
"",
"Peak List",
"--------------------------------------------------------------------------------",
"Channel               Line        keV     Net Int.(cps/uA)",
"--------------------------------------------------------------------------------",
"Na                    P Ka         2.01     0.019",
"                      BaLaESC      2.72     0.026",
"                      BaLb1ESC     3.09     0.010",
"                      CaKa         3.69     0.279",
"                      BaLL         3.96     0.093",
"                      TeLb1        3.96     0.044",
"                      BaLa         4.47     3.103",
"                      BaLb1        4.84     1.973",
"                      BaLb2        5.16     0.474",
"                      BaLg1        5.54     0.186",
"                      PrLb1        5.54     0.055",
"                      BaLg2        5.80     0.127",
"                      ----         8.08     0.022",
"                      ----        19.12     0.133",
"                      ----        19.40     0.072",
"--------------------------------------------------------------------------------",
"",
"Quantitative Result",
"--------------------------------------------------------------------------------",
"Analyte               Result             Std.Dev. Proc.-Calc. Line Intensity(cps/uA)",
"--------------------------------------------------------------------------------",
"====[No. 1 Layer]====< Layer1               >===============================",
"Layer1                   0.000 ug/cm2    -------- Flux       -------- --------",

File: BaFe 31514.20100611033638.csv
"Sample    : BaFe 31514",
"Operator  : Luís",
"Comment  : cubatao-g-policarbonato",
"Group     : kerr2007ag180cal_lt",
"Date       : 2010-06-11 03:32:27",
"",
"Mesurement Condition",
"------------------------------------------------------------------------------------",
"Instrument : 700HS2   Atmosphere : Vac.   Collimator : 10(mm)   Spin : No",
"------------------------------------------------------------------------------------",
"Analyte               TG kV   uA      FI Acq.(keV)  Anal.(keV)  Time(sec)     DT(%)",
"------------------------------------------------------------------------------------",
"Na                    Rh 50  360-Auto Al  0 - 20    0.8 - 1.2   Live -  179   15",
"",
"<Profile>",
"Channel_info_start",
"Channel : Na",
"Points : 2048",
"Range : 0.000000 - 20.48",
"Step : 0.010000",
"Channel_info_end",
"0",
"0",
"0",
"0",
"0",
"28",
"32",
"36",
"34",
"37",
"38",
"52",
"41",
"36",
"53",
"69",
"40",
"29",
"23",
"30",
"28",
"47",
"36",
"36",
"49",
"40",
"50",
"40",
"103",
"138",
"46",
"38",
"33",
"29",
"35",
"36",
"40",
"49",
"111",
"154",
"75",
"53",
"45",
"66",
"102",
"87",
"59",
"60",
"48",
"80",
"76",
"217",
"921",
"1335",
"443",
"273",
"622",
"840",
"346",
"174",
"200",
"416",
"1954",
"10046",
"14905",
"5339",
"669",
"786",
"4720",
"9730",
"6213",
"2374",
"1039",
"2135",
"2239",
"932",
"227",
"267",
"786",
"1343",
"786",
"340",
"567",
"736",
"405",
"247",
"190",
"133",
"97",
"131",
"146",
"168",
"155",
"157",
"136",
"129",
"137",
"123",
"108",
"143",
"129",
"120",
"131",
"157",
"163",
"171",
"142",
"164",
"169",
"152",
"139",
"170",
"166",
"171",
"184",
"249",
"173",
"209",
"190",
"149",
"133",
"160",
"167",
"198",
"205",
"181",
"156",
"164",
"169",
"138",
"168",
"174",
"194",
"174",
"156",
"171",
"162",
"191",
"170",
"164",
"145",
"173",
"144",
"149",
"121",
"122",
"156",
"164",
"136",
"136",
"138",
"146",
"117",
"179",
"174",
"157",
"147",
"156",
"140",
"143",
"131",
"122",
"139",
"152",
"140",
"152",
"137",
"135",
"137",
"135",
"149",
"121",
"138",
"122",
"147",
"130",
"117",
"134",
"124",
"145",
"125",
"124",
"145",
"129",
"130",
"115",
"112",
"111",
"113",
"110",
"121",
"112",
"115",
"132",
"107",
"115",
"117",
"89",
"110",
"97",
"114",
"122",
"134",
"119",
"117",
"115",
"118",
"134",
"107",
"97",
"95",
"109",
"117",
"89",
"102",
"86",
"96",
"102",
"81",
"95",
"91",
"71",
"89",
"110",
"100",
"96",
"88",
"96",
"87",
"84",
"84",
"99",
"90",
"74",
"80",
"86",
"101",
"90",
"88",
"88",
"85",
"84",
"84",
"91",
"89",
"72",
"81",
"78",
"93",
"93",
"66",
"80",
"83",
"96",
"93",
"88",
"100",
"75",
"86",
"96",
"83",
"77",
"102",
"93",
"134",
"109",
"125",
"138",
"198",
"273",
"272",
"408",
"464",
"525",
"516",
"496",
"469",
"370",
"279",
"210",
"186",
"118",
"127",
"138",
"169",
"284",
"316",
"338",
"337",
"209",
"129",
"68",
"83",
"52650",
"Channel_info_start",
"Channel : Mg",
"Points : 0",
"Range : 0.000000 - 0.000000",
"Step : 0.010000",
"Channel_info_end",
"Channel_info_start",
"Channel : Al",
"Points : 0",
"Range : 0.000000 - 0.000000",
"Step : 0.010000",
"Channel_info_end",
"Channel_info_start",
"Channel : Si",
"Points : 0",
"Range : 0.000000 - 0.000000",
"Step : 0.010000",
"Channel_info_end",
"Channel_info_start",
"Channel : P ",
"Points : 0",
"Range : 0.000000 - 0.000000",
"Step : 0.010000",
"Channel_info_end",
"Channel_info_start",
"Channel : S ",
"Points : 0",
"Range : 0.000000 - 0.000000",
"Step : 0.010000",
"Channel_info_end",
"Channel_info_start",
"Channel : Cl",
"Points : 0",
"Range : 0.000000 - 0.000000",
"Step : 0.010000",
"Channel_info_end",
"Channel_info_start",
"Channel : K ",
"Points : 0",
"Range : 0.000000 - 0.000000",
"Step : 0.010000",
"Channel_info_end",
"Channel_info_start",
"Channel : Ca",
"Points : 0",
"Range : 0.000000 - 0.000000",
"Step : 0.010000",
"Channel_info_end",
"Channel_info_start",
"Channel : Ti",
"Points : 0",
"Range : 0.000000 - 0.000000",
"Step : 0.010000",
"Channel_info_end",
"Channel_info_start",
"Channel : V ",
"Points : 0",
"Range : 0.000000 - 0.000000",
"Step : 0.010000",
"Channel_info_end",
"Channel_info_start",
"Channel : Cr",
"Points : 0",
"Range : 0.000000 - 0.000000",
"Step : 0.010000",
"Channel_info_end",
"Channel_info_start",
"Channel : Mn",
"Points : 0",
"Range : 0.000000 - 0.000000",
"Step : 0.010000",
"Channel_info_end",
"Channel_info_start",
"Channel : Fe",
"Points : 0",
"Range : 0.000000 - 0.000000",
"Step : 0.010000",
"Channel_info_end",
"Channel_info_start",
"Channel : Cu",
"Points : 0",
"Range : 0.000000 - 0.000000",
"Step : 0.010000",
"Channel_info_end",
"Channel_info_start",
"Channel : Zn",
"Points : 0",
"Range : 0.000000 - 0.000000",
"Step : 0.010000",
"Channel_info_end",
"Channel_info_start",
"Channel : Sr",
"Points : 0",
"Range : 0.000000 - 0.000000",
"Step : 0.010000",
"Channel_info_end",
"Channel_info_start",
"Channel : Pb",
"Points : 0",
"Range : 0.000000 - 0.000000",
"Step : 0.010000",
"Channel_info_end",
"",
"Qualitative Result",
"--------------------------------------------------------------------------------",
"Element :  Na, P , Ba, Ca, Te, Pr, Rh",
"",
"Peak List",
"--------------------------------------------------------------------------------",
"Channel               Line        keV     Net Int.(cps/uA)",
"--------------------------------------------------------------------------------",
"Na                    NaKa         1.04     0.007",
"                      P Ka         2.01     0.020",
"                      BaLaESC      2.72     0.024",
"                      BaLb1ESC     3.12     0.013",
"                      CaKa         3.68     0.284",
"                      BaLL         3.96     0.099",
"                      TeLb1        3.96     0.043",
"                      BaLa         4.46     3.296",
"                      BaLb1        4.84     2.118",
"                      BaLb2        5.16     0.507",
"                      BaLg1        5.52     0.198",
"                      PrLb1        5.52     0.067",
"                      BaLg2        5.79     0.140",
"                      ----         8.08     0.026",
"                      RhKaC       19.20     0.140",
"                      RhKa        20.08     0.090",
"--------------------------------------------------------------------------------",
"",
"Quantitative Result",
"--------------------------------------------------------------------------------",
"Analyte               Result             Std.Dev. Proc.-Calc. Line Intensity(cps/uA)",
"--------------------------------------------------------------------------------",
"====[No. 1 Layer]====< Layer1               >===============================",
"Layer1                   7.215 ug/cm2    -------- Flux       -------- --------",
"Na                       7.215 ug/cm2    -------- ********** -------- --------",