Folder: mestrado_ifusp/inputs/edxCalibration/edx_raw/2010-06 (part 12)

File: Rh 15765.20100525235352.csv
"Sample    : Rh 15765",
"Operator  : luisf",
"Comment  : cubatao-g-policarbonato",
"Group     : kerr2007ag180cal_lt",
"Date       : 2010-05-25 23:49:38",
"",
"Mesurement Condition",
"------------------------------------------------------------------------------------",
"Instrument : 700HS2   Atmosphere : Vac.   Collimator : 10(mm)   Spin : No",
"------------------------------------------------------------------------------------",
"Analyte               TG kV   uA      FI Acq.(keV)  Anal.(keV)  Time(sec)     DT(%)",
"------------------------------------------------------------------------------------",
"Na                    Rh 50  393-Auto Al  0 - 20    0.8 - 1.2   Live -  179   15",
"",
"<Profile>",
"Channel_info_start",
"Channel : Na",
"Points : 2048",
"Range : 0.000000 - 20.48",
"Step : 0.010000",
"Channel_info_end",
"0",
"0",
"0",
"0",
"1",
"53",
"40",
"52",
"49",
"54",
"42",
"64",
"48",
"128",
"151",
"91",
"90",
"69",
"93",
"82",
"69",
"64",
"68",
"65",
"60",
"60",
"66",
"67",
"80",
"142",
"104",
"102",
"127",
"276",
"455",
"354",
"363",
"1014",
"5462",
"6787",
"3726",
"3697",
"1533",
"832",
"438",
"337",
"129",
"122",
"195",
"130",
"68",
"171",
"598",
"867",
"286",
"114",
"80",
"161",
"132",
"58",
"49",
"72",
"62",
"80",
"67",
"98",
"77",
"82",
"68",
"61",
"60",
"66",
"68",
"85",
"66",
"67",
"73",
"95",
"94",
"84",
"117",
"117",
"138",
"154",
"141",
"117",
"118",
"128",
"114",
"137",
"144",
"155",
"177",
"189",
"190",
"243",
"232",
"254",
"227",
"221",
"230",
"200",
"154",
"168",
"152",
"146",
"157",
"136",
"144",
"148",
"143",
"178",
"161",
"164",
"180",
"195",
"177",
"176",
"159",
"171",
"163",
"170",
"205",
"243",
"250",
"217",
"181",
"223",
"252",
"196",
"193",
"208",
"170",
"231",
"158",
"190",
"178",
"164",
"158",
"177",
"176",
"191",
"158",
"194",
"182",
"148",
"170",
"169",
"158",
"173",
"187",
"169",
"189",
"175",
"145",
"168",
"159",
"164",
"154",
"141",
"165",
"157",
"136",
"146",
"146",
"122",
"151",
"163",
"177",
"156",
"149",
"152",
"169",
"166",
"165",
"161",
"166",
"175",
"139",
"180",
"146",
"149",
"137",
"118",
"143",
"156",
"103",
"126",
"139",
"133",
"136",
"129",
"140",
"122",
"119",
"123",
"131",
"136",
"126",
"119",
"113",
"141",
"143",
"144",
"108",
"129",
"93",
"122",
"124",
"108",
"128",
"118",
"107",
"98",
"130",
"114",
"119",
"124",
"115",
"113",
"104",
"139",
"132",
"104",
"114",
"119",
"94",
"98",
"119",
"116",
"98",
"80",
"103",
"100",
"99",
"111",
"106",
"100",
"81",
"81",
"108",
"107",
"99",
"110",
"105",
"111",
"97",
"107",
"103",
"102",
"111",
"91",
"91",
"102",
"100",
"89",
"125",
"101",
"103",
"127",
"107",
"112",
"125",
"132",
"126",
"132",
"148",
"189",
"227",
"286",
"346",
"467",
"551",
"606",
"616",
"583",
"512",
"458",
"355",
"336",
"245",
"232",
"352",
"887",
"2148",
"3912",
"5572",
"6749",
"6120",
"3631",
"1711",
"615",
"192",
"84207",
"Channel_info_start",
"Channel : Mg",
"Points : 0",
"Range : 0.000000 - 0.000000",
"Step : 0.010000",
"Channel_info_end",
"Channel_info_start",
"Channel : Al",
"Points : 0",
"Range : 0.000000 - 0.000000",
"Step : 0.010000",
"Channel_info_end",
"Channel_info_start",
"Channel : Si",
"Points : 0",
"Range : 0.000000 - 0.000000",
"Step : 0.010000",
"Channel_info_end",
"Channel_info_start",
"Channel : P ",
"Points : 0",
"Range : 0.000000 - 0.000000",
"Step : 0.010000",
"Channel_info_end",
"Channel_info_start",
"Channel : S ",
"Points : 0",
"Range : 0.000000 - 0.000000",
"Step : 0.010000",
"Channel_info_end",
"Channel_info_start",
"Channel : Cl",
"Points : 0",
"Range : 0.000000 - 0.000000",
"Step : 0.010000",
"Channel_info_end",
"Channel_info_start",
"Channel : K ",
"Points : 0",
"Range : 0.000000 - 0.000000",
"Step : 0.010000",
"Channel_info_end",
"Channel_info_start",
"Channel : Ca",
"Points : 0",
"Range : 0.000000 - 0.000000",
"Step : 0.010000",
"Channel_info_end",
"Channel_info_start",
"Channel : Ti",
"Points : 0",
"Range : 0.000000 - 0.000000",
"Step : 0.010000",
"Channel_info_end",
"Channel_info_start",
"Channel : V ",
"Points : 0",
"Range : 0.000000 - 0.000000",
"Step : 0.010000",
"Channel_info_end",
"Channel_info_start",
"Channel : Cr",
"Points : 0",
"Range : 0.000000 - 0.000000",
"Step : 0.010000",
"Channel_info_end",
"Channel_info_start",
"Channel : Mn",
"Points : 0",
"Range : 0.000000 - 0.000000",
"Step : 0.010000",
"Channel_info_end",
"Channel_info_start",
"Channel : Fe",
"Points : 0",
"Range : 0.000000 - 0.000000",
"Step : 0.010000",
"Channel_info_end",
"Channel_info_start",
"Channel : Cu",
"Points : 0",
"Range : 0.000000 - 0.000000",
"Step : 0.010000",
"Channel_info_end",
"Channel_info_start",
"Channel : Zn",
"Points : 0",
"Range : 0.000000 - 0.000000",
"Step : 0.010000",
"Channel_info_end",
"Channel_info_start",
"Channel : Sr",
"Points : 0",
"Range : 0.000000 - 0.000000",
"Step : 0.010000",
"Channel_info_end",
"Channel_info_start",
"Channel : Pb",
"Points : 0",
"Range : 0.000000 - 0.000000",
"Step : 0.010000",
"Channel_info_end",
"",
"Qualitative Result",
"--------------------------------------------------------------------------------",
"Element :  Zn, P , Cd, K , Ca, Ru",
"",
"Peak List",
"--------------------------------------------------------------------------------",
"Channel               Line        keV     Net Int.(cps/uA)",
"--------------------------------------------------------------------------------",
"Na                    ZnLa         0.96     0.020",
"                      P Ka         2.00     0.012",
"                      ----         2.38     0.054",
"                      CdLL         2.70     1.365",
"                      ----         2.87     0.599",
"                      CdLa         3.17     0.025",
"                      CdLb1        3.36     0.012",
"                      K Ka         3.36     0.011",
"                      K Kb         3.59     0.002",
"                      CaKa         3.69     0.170",
"                      CaKb         4.00     0.020",
"                      ----         6.80     0.026",
"                      ----         8.60     0.023",
"                      RuKa        19.21     0.132",
"--------------------------------------------------------------------------------",
"",
"Quantitative Result",
"--------------------------------------------------------------------------------",
"Analyte               Result             Std.Dev. Proc.-Calc. Line Intensity(cps/uA)",
"--------------------------------------------------------------------------------",
"====[No. 1 Layer]====< Layer1               >===============================",
"Layer1                   0.000 ug/cm2    -------- Flux       -------- --------",

File: Sb 15767.20100526000614.csv
"Sample    : Sb 15767",
"Operator  : luisf",
"Comment  : cubatao-g-policarbonato",
"Group     : kerr2007ag180cal_lt",
"Date       : 2010-05-26 00:02:00",
"",
"Mesurement Condition",
"------------------------------------------------------------------------------------",
"Instrument : 700HS2   Atmosphere : Vac.   Collimator : 10(mm)   Spin : No",
"------------------------------------------------------------------------------------",
"Analyte               TG kV   uA      FI Acq.(keV)  Anal.(keV)  Time(sec)     DT(%)",
"------------------------------------------------------------------------------------",
"Na                    Rh 50  393-Auto Al  0 - 20    0.8 - 1.2   Live -  179   16",
"",
"<Profile>",
"Channel_info_start",
"Channel : Na",
"Points : 2048",
"Range : 0.000000 - 20.48",
"Step : 0.010000",
"Channel_info_end",
"0",
"0",
"0",
"0",
"0",
"46",
"52",
"38",
"33",
"51",
"44",
"59",
"44",
"36",
"48",
"51",
"47",
"57",
"47",
"48",
"48",
"66",
"50",
"56",
"51",
"118",
"177",
"220",
"116",
"145",
"180",
"120",
"91",
"68",
"63",
"52",
"59",
"69",
"63",
"70",
"59",
"73",
"75",
"125",
"195",
"566",
"644",
"280",
"292",
"526",
"2318",
"11633",
"12052",
"3697",
"4145",
"9217",
"5982",
"2463",
"1771",
"1882",
"652",
"588",
"998",
"640",
"305",
"637",
"682",
"286",
"114",
"57",
"55",
"74",
"63",
"92",
"85",
"86",
"85",
"101",
"85",
"89",
"86",
"81",
"82",
"150",
"145",
"151",
"155",
"153",
"161",
"169",
"140",
"152",
"142",
"124",
"120",
"151",
"129",
"142",
"128",
"155",
"148",
"170",
"164",
"175",
"190",
"179",
"168",
"197",
"179",
"211",
"216",
"220",
"252",
"237",
"238",
"275",
"180",
"191",
"156",
"166",
"140",
"190",
"216",
"235",
"181",
"204",
"155",
"196",
"198",
"213",
"196",
"213",
"193",
"232",
"172",
"202",
"186",
"169",
"161",
"161",
"149",
"164",
"158",
"200",
"173",
"164",
"163",
"178",
"179",
"198",
"154",
"184",
"172",
"155",
"190",
"177",
"189",
"144",
"157",
"166",
"157",
"185",
"157",
"153",
"163",
"141",
"175",
"157",
"168",
"167",
"154",
"164",
"134",
"153",
"144",
"157",
"172",
"163",
"153",
"166",
"117",
"122",
"126",
"118",
"143",
"154",
"134",
"148",
"138",
"141",
"142",
"153",
"142",
"130",
"125",
"155",
"145",
"134",
"117",
"142",
"117",
"109",
"110",
"137",
"115",
"134",
"118",
"132",
"109",
"128",
"110",
"105",
"120",
"116",
"108",
"113",
"110",
"114",
"118",
"114",
"107",
"110",
"98",
"103",
"91",
"109",
"109",
"97",
"103",
"86",
"90",
"114",
"115",
"107",
"108",
"99",
"97",
"119",
"116",
"119",
"97",
"111",
"82",
"83",
"85",
"89",
"74",
"96",
"89",
"86",
"98",
"105",
"103",
"102",
"113",
"111",
"116",
"96",
"101",
"104",
"110",
"125",
"104",
"118",
"146",
"113",
"145",
"186",
"203",
"259",
"334",
"440",
"495",
"528",
"540",
"580",
"524",
"420",
"346",
"314",
"226",
"207",
"129",
"164",
"225",
"289",
"344",
"391",
"362",
"238",
"137",
"107",
"71",
"127424",
"Channel_info_start",
"Channel : Mg",
"Points : 0",
"Range : 0.000000 - 0.000000",
"Step : 0.010000",
"Channel_info_end",
"Channel_info_start",
"Channel : Al",
"Points : 0",
"Range : 0.000000 - 0.000000",
"Step : 0.010000",
"Channel_info_end",
"Channel_info_start",
"Channel : Si",
"Points : 0",
"Range : 0.000000 - 0.000000",
"Step : 0.010000",
"Channel_info_end",
"Channel_info_start",
"Channel : P ",
"Points : 0",
"Range : 0.000000 - 0.000000",
"Step : 0.010000",
"Channel_info_end",
"Channel_info_start",
"Channel : S ",
"Points : 0",
"Range : 0.000000 - 0.000000",
"Step : 0.010000",
"Channel_info_end",
"Channel_info_start",
"Channel : Cl",
"Points : 0",
"Range : 0.000000 - 0.000000",
"Step : 0.010000",
"Channel_info_end",
"Channel_info_start",
"Channel : K ",
"Points : 0",
"Range : 0.000000 - 0.000000",
"Step : 0.010000",
"Channel_info_end",
"Channel_info_start",
"Channel : Ca",
"Points : 0",
"Range : 0.000000 - 0.000000",
"Step : 0.010000",
"Channel_info_end",
"Channel_info_start",
"Channel : Ti",
"Points : 0",
"Range : 0.000000 - 0.000000",
"Step : 0.010000",
"Channel_info_end",
"Channel_info_start",
"Channel : V ",
"Points : 0",
"Range : 0.000000 - 0.000000",
"Step : 0.010000",
"Channel_info_end",
"Channel_info_start",
"Channel : Cr",
"Points : 0",
"Range : 0.000000 - 0.000000",
"Step : 0.010000",
"Channel_info_end",
"Channel_info_start",
"Channel : Mn",
"Points : 0",
"Range : 0.000000 - 0.000000",
"Step : 0.010000",
"Channel_info_end",
"Channel_info_start",
"Channel : Fe",
"Points : 0",
"Range : 0.000000 - 0.000000",
"Step : 0.010000",
"Channel_info_end",
"Channel_info_start",
"Channel : Cu",
"Points : 0",
"Range : 0.000000 - 0.000000",
"Step : 0.010000",
"Channel_info_end",
"Channel_info_start",
"Channel : Zn",
"Points : 0",
"Range : 0.000000 - 0.000000",
"Step : 0.010000",
"Channel_info_end",
"Channel_info_start",
"Channel : Sr",
"Points : 0",
"Range : 0.000000 - 0.000000",
"Step : 0.010000",
"Channel_info_end",
"Channel_info_start",
"Channel : Pb",
"Points : 0",
"Range : 0.000000 - 0.000000",
"Step : 0.010000",
"Channel_info_end",
"",
"Qualitative Result",
"--------------------------------------------------------------------------------",
"Element :  Sb, Rh",
"",
"Peak List",
"--------------------------------------------------------------------------------",
"Channel               Line        keV     Net Int.(cps/uA)",
"--------------------------------------------------------------------------------",
"Na                    ----         1.86     0.028",
"                      ----         2.10     0.021",
"                      SbLL         3.19     0.090",
"                      SbLa         3.60     2.696",
"                      SbLb1        3.86     1.677",
"                      SbLb2        4.12     0.277",
"                      SbLg1        4.34     0.125",
"                      SbLg2        4.60     0.103",
"                      RhKaC       19.19     0.121",
"                      ----        19.48     0.052",
"                      RhKa        20.07     0.089",
"--------------------------------------------------------------------------------",
"",
"Quantitative Result",
"--------------------------------------------------------------------------------",
"Analyte               Result             Std.Dev. Proc.-Calc. Line Intensity(cps/uA)",
"--------------------------------------------------------------------------------",
"====[No. 1 Layer]====< Layer1               >===============================",
"Layer1                   0.000 ug/cm2    -------- Flux       -------- --------",

File: Sb 15767.20100626141658.csv
"Sample    : Sb 15767",
"Operator  : thiago",
"Comment  : cubatao-g-policarbonato",
"Group     : kerr2007ag180cal_lt",
"Date       : 2010-06-26 14:12:44",
"",
"Mesurement Condition",
"------------------------------------------------------------------------------------",
"Instrument : 700HS2   Atmosphere : Vac.   Collimator : 10(mm)   Spin : No",
"------------------------------------------------------------------------------------",
"Analyte               TG kV   uA      FI Acq.(keV)  Anal.(keV)  Time(sec)     DT(%)",
"------------------------------------------------------------------------------------",
"Na                    Rh 50  393-Auto Al  0 - 20    0.8 - 1.2   Live -  180   15",
"",
"<Profile>",
"Channel_info_start",
"Channel : Na",
"Points : 2048",
"Range : 0.000000 - 20.48",
"Step : 0.010000",
"Channel_info_end",
"0",
"0",
"0",
"0",
"1",
"44",
"50",
"54",
"47",
"48",
"42",
"51",
"43",
"50",
"46",
"56",
"36",
"38",
"40",
"46",
"55",
"71",
"58",
"66",
"74",
"81",
"162",
"203",
"119",
"149",
"149",
"126",
"71",
"75",
"58",
"56",
"64",
"67",
"54",
"59",
"69",
"88",
"86",
"109",
"173",
"498",
"576",
"298",
"293",
"505",
"2079",
"11220",
"12387",
"3829",
"3869",
"8867",
"6348",
"2604",
"1608",
"1869",
"682",
"477",
"980",
"631",
"281",
"602",
"680",
"307",
"127",
"60",
"49",
"63",
"75",
"73",
"87",
"97",
"91",
"97",
"72",
"73",
"88",
"87",
"114",
"120",
"134",
"120",
"143",
"153",
"162",
"170",
"167",
"185",
"154",
"147",
"122",
"130",
"120",
"150",
"143",
"165",
"177",
"186",
"170",
"191",
"165",
"186",
"174",
"218",
"191",
"209",
"242",
"235",
"201",
"240",
"225",
"220",
"194",
"166",
"168",
"176",
"173",
"212",
"189",
"238",
"212",
"202",
"156",
"166",
"185",
"182",
"192",
"206",
"191",
"192",
"178",
"192",
"170",
"155",
"168",
"171",
"152",
"157",
"162",
"155",
"177",
"151",
"170",
"170",
"146",
"163",
"165",
"155",
"179",
"162",
"173",
"173",
"204",
"186",
"158",
"169",
"166",
"188",
"143",
"145",
"170",
"133",
"135",
"151",
"152",
"161",
"129",
"164",
"147",
"156",
"119",
"162",
"128",
"164",
"135",
"128",
"131",
"127",
"132",
"135",
"151",
"161",
"129",
"158",
"132",
"129",
"138",
"145",
"153",
"139",
"145",
"131",
"132",
"135",
"140",
"123",
"133",
"125",
"109",
"133",
"132",
"102",
"123",
"120",
"118",
"133",
"122",
"130",
"135",
"137",
"118",
"137",
"111",
"106",
"99",
"86",
"116",
"114",
"104",
"131",
"98",
"105",
"105",
"115",
"104",
"99",
"95",
"100",
"88",
"94",
"103",
"99",
"96",
"88",
"100",
"106",
"111",
"93",
"95",
"104",
"98",
"96",
"88",
"96",
"81",
"103",
"73",
"98",
"99",
"94",
"84",
"96",
"104",
"99",
"95",
"105",
"98",
"102",
"108",
"105",
"133",
"144",
"155",
"175",
"201",
"250",
"318",
"405",
"494",
"542",
"567",
"624",
"554",
"501",
"359",
"259",
"239",
"170",
"174",
"161",
"187",
"267",
"329",
"379",
"403",
"236",
"143",
"93",
"91",
"128320",
"Channel_info_start",
"Channel : Mg",
"Points : 0",
"Range : 0.000000 - 0.000000",
"Step : 0.010000",
"Channel_info_end",
"Channel_info_start",
"Channel : Al",
"Points : 0",
"Range : 0.000000 - 0.000000",
"Step : 0.010000",
"Channel_info_end",
"Channel_info_start",
"Channel : Si",
"Points : 0",
"Range : 0.000000 - 0.000000",
"Step : 0.010000",
"Channel_info_end",
"Channel_info_start",
"Channel : P ",
"Points : 0",
"Range : 0.000000 - 0.000000",
"Step : 0.010000",
"Channel_info_end",
"Channel_info_start",
"Channel : S ",
"Points : 0",
"Range : 0.000000 - 0.000000",
"Step : 0.010000",
"Channel_info_end",
"Channel_info_start",
"Channel : Cl",
"Points : 0",
"Range : 0.000000 - 0.000000",
"Step : 0.010000",
"Channel_info_end",
"Channel_info_start",
"Channel : K ",
"Points : 0",
"Range : 0.000000 - 0.000000",
"Step : 0.010000",
"Channel_info_end",
"Channel_info_start",
"Channel : Ca",
"Points : 0",
"Range : 0.000000 - 0.000000",
"Step : 0.010000",
"Channel_info_end",
"Channel_info_start",
"Channel : Ti",
"Points : 0",
"Range : 0.000000 - 0.000000",
"Step : 0.010000",
"Channel_info_end",
"Channel_info_start",
"Channel : V ",
"Points : 0",
"Range : 0.000000 - 0.000000",
"Step : 0.010000",
"Channel_info_end",
"Channel_info_start",
"Channel : Cr",
"Points : 0",
"Range : 0.000000 - 0.000000",
"Step : 0.010000",
"Channel_info_end",
"Channel_info_start",
"Channel : Mn",
"Points : 0",
"Range : 0.000000 - 0.000000",
"Step : 0.010000",
"Channel_info_end",
"Channel_info_start",
"Channel : Fe",
"Points : 0",
"Range : 0.000000 - 0.000000",
"Step : 0.010000",
"Channel_info_end",
"Channel_info_start",
"Channel : Cu",
"Points : 0",
"Range : 0.000000 - 0.000000",
"Step : 0.010000",
"Channel_info_end",
"Channel_info_start",
"Channel : Zn",
"Points : 0",
"Range : 0.000000 - 0.000000",
"Step : 0.010000",
"Channel_info_end",
"Channel_info_start",
"Channel : Sr",
"Points : 0",
"Range : 0.000000 - 0.000000",
"Step : 0.010000",
"Channel_info_end",
"Channel_info_start",
"Channel : Pb",
"Points : 0",
"Range : 0.000000 - 0.000000",
"Step : 0.010000",
"Channel_info_end",
"",
"Qualitative Result",
"--------------------------------------------------------------------------------",
"Element :  Sb, Rh",
"",
"Peak List",
"--------------------------------------------------------------------------------",
"Channel               Line        keV     Net Int.(cps/uA)",
"--------------------------------------------------------------------------------",
"Na                    SbLaESC      1.87     0.024",
"                      ----         2.12     0.018",
"                      SbLL         3.20     0.100",
"                      SbLa         3.60     2.639",
"                      SbLb1        3.86     1.646",
"                      SbLb2        4.12     0.278",
"                      SbLg1        4.36     0.131",
"                      SbLg2        4.60     0.103",
"                      RhKaC       19.16     0.136",
"                      ----        19.44     0.072",
"                      RhKa        20.08     0.093",
"--------------------------------------------------------------------------------",
"",
"Quantitative Result",
"--------------------------------------------------------------------------------",
"Analyte               Result             Std.Dev. Proc.-Calc. Line Intensity(cps/uA)",
"--------------------------------------------------------------------------------",
"====[No. 1 Layer]====< Layer1               >===============================",
"Layer1                   0.000 ug/cm2    -------- Flux       -------- --------",