Folder: mestrado_ifusp/inputs/edxCalibration/edx_raw/2010-06 (part 11)

File: Pg 15772.20100626151506.csv
"Sample    : Pg 15772",
"Operator  : thiago",
"Comment  : cubatao-g-policarbonato",
"Group     : kerr2007ag180cal_lt",
"Date       : 2010-06-26 15:11:04",
"",
"Mesurement Condition",
"------------------------------------------------------------------------------------",
"Instrument : 700HS2   Atmosphere : Vac.   Collimator : 10(mm)   Spin : No",
"------------------------------------------------------------------------------------",
"Analyte               TG kV   uA      FI Acq.(keV)  Anal.(keV)  Time(sec)     DT(%)",
"------------------------------------------------------------------------------------",
"Na                    Rh 50  152-Auto Al  0 - 20    0.8 - 1.2   Live -  179   15",
"",
"<Profile>",
"Channel_info_start",
"Channel : Na",
"Points : 2048",
"Range : 0.000000 - 20.48",
"Step : 0.010000",
"Channel_info_end",
"0",
"0",
"0",
"0",
"1",
"30",
"27",
"35",
"57",
"91",
"89",
"55",
"21",
"40",
"31",
"24",
"25",
"22",
"24",
"20",
"35",
"41",
"31",
"43",
"41",
"86",
"324",
"208",
"149",
"124",
"154",
"279",
"464",
"2445",
"4223",
"3339",
"1322",
"351",
"429",
"243",
"74",
"65",
"73",
"82",
"176",
"167",
"87",
"31",
"26",
"25",
"24",
"80",
"247",
"353",
"120",
"42",
"34",
"54",
"47",
"37",
"27",
"24",
"23",
"31",
"35",
"31",
"39",
"47",
"52",
"59",
"50",
"38",
"41",
"38",
"38",
"35",
"43",
"47",
"47",
"38",
"49",
"47",
"59",
"64",
"54",
"80",
"76",
"65",
"68",
"66",
"72",
"80",
"102",
"95",
"83",
"101",
"92",
"88",
"77",
"91",
"89",
"98",
"92",
"74",
"80",
"108",
"89",
"95",
"86",
"88",
"88",
"105",
"98",
"107",
"127",
"124",
"117",
"90",
"73",
"92",
"69",
"105",
"101",
"129",
"139",
"110",
"94",
"113",
"107",
"200",
"445",
"693",
"589",
"288",
"134",
"111",
"111",
"116",
"82",
"119",
"98",
"104",
"99",
"116",
"117",
"119",
"138",
"442",
"1593",
"4672",
"9316",
"10641",
"6056",
"2022",
"424",
"140",
"110",
"107",
"83",
"130",
"137",
"200",
"222",
"216",
"151",
"98",
"99",
"89",
"108",
"117",
"88",
"151",
"162",
"280",
"374",
"546",
"522",
"819",
"1865",
"4923",
"7044",
"6003",
"3283",
"1378",
"636",
"445",
"371",
"344",
"203",
"105",
"111",
"90",
"85",
"76",
"62",
"62",
"77",
"54",
"59",
"55",
"62",
"64",
"75",
"86",
"75",
"87",
"97",
"106",
"194",
"487",
"968",
"1082",
"806",
"419",
"243",
"261",
"350",
"323",
"273",
"169",
"91",
"60",
"51",
"64",
"76",
"108",
"77",
"53",
"52",
"42",
"49",
"42",
"53",
"54",
"55",
"54",
"47",
"34",
"43",
"52",
"44",
"36",
"46",
"43",
"44",
"30",
"50",
"49",
"39",
"44",
"52",
"51",
"28",
"37",
"46",
"39",
"59",
"36",
"42",
"33",
"53",
"46",
"43",
"54",
"57",
"64",
"62",
"59",
"81",
"88",
"155",
"180",
"176",
"234",
"222",
"254",
"214",
"195",
"152",
"119",
"108",
"77",
"59",
"66",
"106",
"178",
"190",
"236",
"215",
"125",
"79",
"43",
"34",
"20605",
"Channel_info_start",
"Channel : Mg",
"Points : 0",
"Range : 0.000000 - 0.000000",
"Step : 0.010000",
"Channel_info_end",
"Channel_info_start",
"Channel : Al",
"Points : 0",
"Range : 0.000000 - 0.000000",
"Step : 0.010000",
"Channel_info_end",
"Channel_info_start",
"Channel : Si",
"Points : 0",
"Range : 0.000000 - 0.000000",
"Step : 0.010000",
"Channel_info_end",
"Channel_info_start",
"Channel : P ",
"Points : 0",
"Range : 0.000000 - 0.000000",
"Step : 0.010000",
"Channel_info_end",
"Channel_info_start",
"Channel : S ",
"Points : 0",
"Range : 0.000000 - 0.000000",
"Step : 0.010000",
"Channel_info_end",
"Channel_info_start",
"Channel : Cl",
"Points : 0",
"Range : 0.000000 - 0.000000",
"Step : 0.010000",
"Channel_info_end",
"Channel_info_start",
"Channel : K ",
"Points : 0",
"Range : 0.000000 - 0.000000",
"Step : 0.010000",
"Channel_info_end",
"Channel_info_start",
"Channel : Ca",
"Points : 0",
"Range : 0.000000 - 0.000000",
"Step : 0.010000",
"Channel_info_end",
"Channel_info_start",
"Channel : Ti",
"Points : 0",
"Range : 0.000000 - 0.000000",
"Step : 0.010000",
"Channel_info_end",
"Channel_info_start",
"Channel : V ",
"Points : 0",
"Range : 0.000000 - 0.000000",
"Step : 0.010000",
"Channel_info_end",
"Channel_info_start",
"Channel : Cr",
"Points : 0",
"Range : 0.000000 - 0.000000",
"Step : 0.010000",
"Channel_info_end",
"Channel_info_start",
"Channel : Mn",
"Points : 0",
"Range : 0.000000 - 0.000000",
"Step : 0.010000",
"Channel_info_end",
"Channel_info_start",
"Channel : Fe",
"Points : 0",
"Range : 0.000000 - 0.000000",
"Step : 0.010000",
"Channel_info_end",
"Channel_info_start",
"Channel : Cu",
"Points : 0",
"Range : 0.000000 - 0.000000",
"Step : 0.010000",
"Channel_info_end",
"Channel_info_start",
"Channel : Zn",
"Points : 0",
"Range : 0.000000 - 0.000000",
"Step : 0.010000",
"Channel_info_end",
"Channel_info_start",
"Channel : Sr",
"Points : 0",
"Range : 0.000000 - 0.000000",
"Step : 0.010000",
"Channel_info_end",
"Channel_info_start",
"Channel : Pb",
"Points : 0",
"Range : 0.000000 - 0.000000",
"Step : 0.010000",
"Channel_info_end",
"",
"Qualitative Result",
"--------------------------------------------------------------------------------",
"Element :  Pb, S , Cl, Ca, Ir, Ru",
"",
"Peak List",
"--------------------------------------------------------------------------------",
"Channel               Line        keV     Net Int.(cps/uA)",
"--------------------------------------------------------------------------------",
"Na                    ----         0.61     0.028",
"                      ----         0.71     0.023",
"                      ----         1.82     0.106",
"                      PbMa         2.37     1.257",
"                      S Ka         2.37     0.612",
"                      ClKa         2.66     0.156",
"                      ----         3.11     0.067",
"                      CaKa         3.70     0.175",
"                      CaKb         4.01     0.019",
"                      PbLL         9.20     0.279",
"                      IrLa         9.20     0.126",
"                      PbLa        10.55     6.982",
"                      IrLb1       10.71     0.069",
"                      PbLn        11.38     0.107",
"                      PbLb4       12.26     0.182",
"                      PbLb1       12.61     4.871",
"                      ----        13.08     0.087",
"                      PbLg1       14.80     0.677",
"                      PbLg2       15.17     0.211",
"                      RuKa        19.23     0.137",
"                      ----        19.97     0.130",
"--------------------------------------------------------------------------------",
"",
"Quantitative Result",
"--------------------------------------------------------------------------------",
"Analyte               Result             Std.Dev. Proc.-Calc. Line Intensity(cps/uA)",
"--------------------------------------------------------------------------------",
"====[No. 1 Layer]====< Layer1               >===============================",
"Layer1                   0.000 ug/cm2    -------- Flux       -------- --------",

File: Pt 15770.20100626154741.csv
"Sample    : Pt 15770",
"Operator  : luis",
"Comment  : cubatao-g-policarbonato",
"Group     : kerr2007ag180cal_lt",
"Date       : 2010-06-26 15:43:38",
"",
"Mesurement Condition",
"------------------------------------------------------------------------------------",
"Instrument : 700HS2   Atmosphere : Vac.   Collimator : 10(mm)   Spin : No",
"------------------------------------------------------------------------------------",
"Analyte               TG kV   uA      FI Acq.(keV)  Anal.(keV)  Time(sec)     DT(%)",
"------------------------------------------------------------------------------------",
"Na                    Rh 50  210-Auto Al  0 - 20    0.8 - 1.2   Live -  179   15",
"",
"<Profile>",
"Channel_info_start",
"Channel : Na",
"Points : 2048",
"Range : 0.000000 - 20.48",
"Step : 0.010000",
"Channel_info_end",
"0",
"0",
"0",
"0",
"1",
"96",
"59",
"41",
"33",
"32",
"26",
"21",
"32",
"23",
"38",
"20",
"23",
"20",
"20",
"36",
"29",
"49",
"114",
"280",
"199",
"162",
"189",
"282",
"641",
"2794",
"3763",
"2093",
"415",
"377",
"250",
"81",
"42",
"54",
"124",
"128",
"64",
"47",
"19",
"33",
"28",
"20",
"26",
"25",
"23",
"22",
"21",
"93",
"294",
"480",
"138",
"42",
"49",
"78",
"58",
"45",
"34",
"29",
"26",
"26",
"37",
"35",
"41",
"39",
"38",
"42",
"38",
"40",
"37",
"33",
"34",
"42",
"46",
"70",
"60",
"73",
"78",
"82",
"91",
"89",
"68",
"79",
"62",
"66",
"76",
"97",
"108",
"133",
"113",
"144",
"140",
"136",
"134",
"123",
"145",
"142",
"105",
"118",
"107",
"82",
"73",
"95",
"103",
"115",
"90",
"77",
"115",
"109",
"99",
"101",
"143",
"165",
"211",
"526",
"734",
"610",
"271",
"160",
"152",
"171",
"212",
"158",
"146",
"168",
"158",
"180",
"137",
"299",
"1006",
"4064",
"9396",
"12214",
"7502",
"2364",
"442",
"199",
"147",
"211",
"289",
"268",
"200",
"121",
"108",
"130",
"119",
"110",
"107",
"131",
"169",
"329",
"613",
"1027",
"1925",
"4041",
"5726",
"5891",
"4491",
"3162",
"1703",
"807",
"368",
"363",
"262",
"203",
"174",
"123",
"105",
"109",
"90",
"117",
"105",
"101",
"94",
"99",
"118",
"130",
"107",
"126",
"223",
"549",
"944",
"1207",
"797",
"440",
"309",
"365",
"379",
"368",
"235",
"155",
"91",
"99",
"112",
"105",
"108",
"106",
"82",
"69",
"58",
"63",
"70",
"50",
"77",
"62",
"56",
"65",
"61",
"63",
"76",
"76",
"83",
"66",
"57",
"63",
"64",
"63",
"64",
"75",
"53",
"65",
"58",
"56",
"40",
"52",
"56",
"65",
"63",
"61",
"63",
"69",
"42",
"53",
"51",
"58",
"54",
"54",
"58",
"68",
"60",
"48",
"50",
"70",
"59",
"63",
"48",
"53",
"69",
"61",
"53",
"49",
"56",
"40",
"66",
"56",
"63",
"54",
"65",
"58",
"58",
"72",
"66",
"73",
"76",
"96",
"97",
"138",
"204",
"236",
"306",
"255",
"287",
"317",
"318",
"229",
"179",
"176",
"118",
"93",
"84",
"96",
"133",
"151",
"248",
"263",
"266",
"179",
"103",
"62",
"74",
"25316",
"Channel_info_start",
"Channel : Mg",
"Points : 0",
"Range : 0.000000 - 0.000000",
"Step : 0.010000",
"Channel_info_end",
"Channel_info_start",
"Channel : Al",
"Points : 0",
"Range : 0.000000 - 0.000000",
"Step : 0.010000",
"Channel_info_end",
"Channel_info_start",
"Channel : Si",
"Points : 0",
"Range : 0.000000 - 0.000000",
"Step : 0.010000",
"Channel_info_end",
"Channel_info_start",
"Channel : P ",
"Points : 0",
"Range : 0.000000 - 0.000000",
"Step : 0.010000",
"Channel_info_end",
"Channel_info_start",
"Channel : S ",
"Points : 0",
"Range : 0.000000 - 0.000000",
"Step : 0.010000",
"Channel_info_end",
"Channel_info_start",
"Channel : Cl",
"Points : 0",
"Range : 0.000000 - 0.000000",
"Step : 0.010000",
"Channel_info_end",
"Channel_info_start",
"Channel : K ",
"Points : 0",
"Range : 0.000000 - 0.000000",
"Step : 0.010000",
"Channel_info_end",
"Channel_info_start",
"Channel : Ca",
"Points : 0",
"Range : 0.000000 - 0.000000",
"Step : 0.010000",
"Channel_info_end",
"Channel_info_start",
"Channel : Ti",
"Points : 0",
"Range : 0.000000 - 0.000000",
"Step : 0.010000",
"Channel_info_end",
"Channel_info_start",
"Channel : V ",
"Points : 0",
"Range : 0.000000 - 0.000000",
"Step : 0.010000",
"Channel_info_end",
"Channel_info_start",
"Channel : Cr",
"Points : 0",
"Range : 0.000000 - 0.000000",
"Step : 0.010000",
"Channel_info_end",
"Channel_info_start",
"Channel : Mn",
"Points : 0",
"Range : 0.000000 - 0.000000",
"Step : 0.010000",
"Channel_info_end",
"Channel_info_start",
"Channel : Fe",
"Points : 0",
"Range : 0.000000 - 0.000000",
"Step : 0.010000",
"Channel_info_end",
"Channel_info_start",
"Channel : Cu",
"Points : 0",
"Range : 0.000000 - 0.000000",
"Step : 0.010000",
"Channel_info_end",
"Channel_info_start",
"Channel : Zn",
"Points : 0",
"Range : 0.000000 - 0.000000",
"Step : 0.010000",
"Channel_info_end",
"Channel_info_start",
"Channel : Sr",
"Points : 0",
"Range : 0.000000 - 0.000000",
"Step : 0.010000",
"Channel_info_end",
"Channel_info_start",
"Channel : Pb",
"Points : 0",
"Range : 0.000000 - 0.000000",
"Step : 0.010000",
"Channel_info_end",
"",
"Qualitative Result",
"--------------------------------------------------------------------------------",
"Element :  Pt, S , Ca, Ru",
"",
"Peak List",
"--------------------------------------------------------------------------------",
"Channel               Line        keV     Net Int.(cps/uA)",
"--------------------------------------------------------------------------------",
"Na                    ----         1.60     0.075",
"                      PtMa         2.08     1.238",
"                      S Ka         2.35     0.096",
"                      ----         2.70     0.043",
"                      CaKa         3.68     0.173",
"                      CaKb         4.03     0.021",
"                      ----         6.74     0.032",
"                      PtLL         8.26     0.288",
"                      PtLa         9.44     5.734",
"                      ----         9.97     0.069",
"                      PtLb1       11.07     2.846",
"                      ----        11.28     1.345",
"                      PtLg1       12.95     0.548",
"                      PtLg3       13.27     0.155",
"                      RuKa        19.21     0.154",
"--------------------------------------------------------------------------------",
"",
"Quantitative Result",
"--------------------------------------------------------------------------------",
"Analyte               Result             Std.Dev. Proc.-Calc. Line Intensity(cps/uA)",
"--------------------------------------------------------------------------------",
"====[No. 1 Layer]====< Layer1               >===============================",
"Layer1                   0.000 ug/cm2    -------- Flux       -------- --------",

File: Rb 31511.20100611020258.csv
"Sample    : Rb 31511",
"Operator  : Luís",
"Comment  : cubatao-g-policarbonato",
"Group     : kerr2007ag180cal_lt",
"Date       : 2010-06-11 01:56:57",
"",
"Mesurement Condition",
"------------------------------------------------------------------------------------",
"Instrument : 700HS2   Atmosphere : Vac.   Collimator : 10(mm)   Spin : No",
"------------------------------------------------------------------------------------",
"Analyte               TG kV   uA      FI Acq.(keV)  Anal.(keV)  Time(sec)     DT(%)",
"------------------------------------------------------------------------------------",
"Na                    Rh 50  237-Auto Al  0 - 20    0.8 - 1.2   Live -  180   15",
"",
"<Profile>",
"Channel_info_start",
"Channel : Na",
"Points : 2048",
"Range : 0.000000 - 20.48",
"Step : 0.010000",
"Channel_info_end",
"0",
"0",
"0",
"0",
"0",
"36",
"42",
"29",
"23",
"38",
"42",
"22",
"29",
"28",
"27",
"26",
"22",
"24",
"22",
"31",
"34",
"76",
"51",
"145",
"722",
"843",
"296",
"101",
"77",
"82",
"57",
"69",
"63",
"32",
"30",
"53",
"56",
"36",
"26",
"48",
"26",
"31",
"26",
"24",
"30",
"42",
"42",
"65",
"62",
"170",
"256",
"257",
"714",
"980",
"459",
"1778",
"5169",
"3864",
"663",
"1051",
"3320",
"3160",
"1275",
"548",
"818",
"709",
"225",
"144",
"361",
"427",
"160",
"159",
"270",
"239",
"87",
"49",
"35",
"53",
"51",
"38",
"56",
"45",
"50",
"50",
"44",
"57",
"68",
"83",
"119",
"109",
"125",
"116",
"134",
"143",
"109",
"108",
"105",
"106",
"102",
"101",
"81",
"86",
"86",
"95",
"92",
"108",
"83",
"97",
"92",
"90",
"93",
"86",
"70",
"115",
"130",
"123",
"109",
"122",
"92",
"112",
"102",
"132",
"146",
"165",
"167",
"107",
"125",
"113",
"110",
"89",
"82",
"108",
"112",
"101",
"102",
"94",
"100",
"95",
"109",
"82",
"86",
"101",
"86",
"97",
"100",
"112",
"99",
"99",
"102",
"102",
"94",
"116",
"110",
"90",
"103",
"100",
"95",
"96",
"100",
"102",
"84",
"80",
"84",
"92",
"109",
"115",
"92",
"109",
"77",
"90",
"84",
"95",
"91",
"86",
"61",
"92",
"88",
"100",
"89",
"94",
"87",
"91",
"94",
"108",
"107",
"118",
"143",
"429",
"1719",
"5389",
"9613",
"11835",
"8456",
"3686",
"1053",
"245",
"113",
"91",
"70",
"107",
"94",
"87",
"78",
"87",
"81",
"87",
"79",
"105",
"99",
"113",
"218",
"551",
"1244",
"1720",
"1603",
"1170",
"624",
"325",
"197",
"138",
"76",
"60",
"64",
"68",
"67",
"73",
"49",
"63",
"50",
"71",
"64",
"61",
"50",
"61",
"55",
"55",
"58",
"60",
"63",
"55",
"65",
"74",
"57",
"62",
"51",
"61",
"53",
"49",
"67",
"67",
"65",
"62",
"55",
"50",
"62",
"68",
"41",
"55",
"74",
"70",
"75",
"62",
"68",
"76",
"67",
"77",
"86",
"115",
"109",
"160",
"194",
"264",
"336",
"375",
"345",
"357",
"312",
"260",
"194",
"156",
"112",
"104",
"80",
"94",
"130",
"146",
"174",
"226",
"206",
"141",
"70",
"62",
"43",
"44651",
"Channel_info_start",
"Channel : Mg",
"Points : 0",
"Range : 0.000000 - 0.000000",
"Step : 0.010000",
"Channel_info_end",
"Channel_info_start",
"Channel : Al",
"Points : 0",
"Range : 0.000000 - 0.000000",
"Step : 0.010000",
"Channel_info_end",
"Channel_info_start",
"Channel : Si",
"Points : 0",
"Range : 0.000000 - 0.000000",
"Step : 0.010000",
"Channel_info_end",
"Channel_info_start",
"Channel : P ",
"Points : 0",
"Range : 0.000000 - 0.000000",
"Step : 0.010000",
"Channel_info_end",
"Channel_info_start",
"Channel : S ",
"Points : 0",
"Range : 0.000000 - 0.000000",
"Step : 0.010000",
"Channel_info_end",
"Channel_info_start",
"Channel : Cl",
"Points : 0",
"Range : 0.000000 - 0.000000",
"Step : 0.010000",
"Channel_info_end",
"Channel_info_start",
"Channel : K ",
"Points : 0",
"Range : 0.000000 - 0.000000",
"Step : 0.010000",
"Channel_info_end",
"Channel_info_start",
"Channel : Ca",
"Points : 0",
"Range : 0.000000 - 0.000000",
"Step : 0.010000",
"Channel_info_end",
"Channel_info_start",
"Channel : Ti",
"Points : 0",
"Range : 0.000000 - 0.000000",
"Step : 0.010000",
"Channel_info_end",
"Channel_info_start",
"Channel : V ",
"Points : 0",
"Range : 0.000000 - 0.000000",
"Step : 0.010000",
"Channel_info_end",
"Channel_info_start",
"Channel : Cr",
"Points : 0",
"Range : 0.000000 - 0.000000",
"Step : 0.010000",
"Channel_info_end",
"Channel_info_start",
"Channel : Mn",
"Points : 0",
"Range : 0.000000 - 0.000000",
"Step : 0.010000",
"Channel_info_end",
"Channel_info_start",
"Channel : Fe",
"Points : 0",
"Range : 0.000000 - 0.000000",
"Step : 0.010000",
"Channel_info_end",
"Channel_info_start",
"Channel : Cu",
"Points : 0",
"Range : 0.000000 - 0.000000",
"Step : 0.010000",
"Channel_info_end",
"Channel_info_start",
"Channel : Zn",
"Points : 0",
"Range : 0.000000 - 0.000000",
"Step : 0.010000",
"Channel_info_end",
"Channel_info_start",
"Channel : Sr",
"Points : 0",
"Range : 0.000000 - 0.000000",
"Step : 0.010000",
"Channel_info_end",
"Channel_info_start",
"Channel : Pb",
"Points : 0",
"Range : 0.000000 - 0.000000",
"Step : 0.010000",
"Channel_info_end",
"",
"Qualitative Result",
"--------------------------------------------------------------------------------",
"Element :  Al, Rb, P , I , Ca",
"",
"Peak List",
"--------------------------------------------------------------------------------",
"Channel               Line        keV     Net Int.(cps/uA)",
"--------------------------------------------------------------------------------",
"Na                    AlKa         1.48     0.012",
"                      RbLa         1.72     0.251",
"                      P Ka         1.99     0.018",
"                      I LL         3.48     0.038",
"                      CaKa         3.68     0.254",
"                      I La         3.94     1.771",
"                      CaKb         4.01     0.036",
"                      I Lb1        4.23     1.136",
"                      I Lb2        4.52     0.225",
"                      I Lg1        4.80     0.123",
"                      I Lg2        5.04     0.069",
"                      RbKa        13.36     5.467",
"                      RbKb        14.93     0.855",
"                      ----        19.12     0.149",
"                      ----        19.44     0.063",
"                      ----        19.97     0.051",
"--------------------------------------------------------------------------------",
"",
"Quantitative Result",
"--------------------------------------------------------------------------------",
"Analyte               Result             Std.Dev. Proc.-Calc. Line Intensity(cps/uA)",
"--------------------------------------------------------------------------------",
"====[No. 1 Layer]====< Layer1               >===============================",
"Layer1                   0.000 ug/cm2    -------- Flux       -------- --------",