Folder: mestrado_ifusp/inputs/edxCalibration/edx_raw/2010-06 (part 6)

File: DyF3 31517.20100526005522.csv
"Sample    : DyF3 31517",
"Operator  : luisf",
"Comment  : cubatao-g-policarbonato",
"Group     : kerr2007ag180cal_lt",
"Date       : 2010-05-26 00:51:18",
"",
"Mesurement Condition",
"------------------------------------------------------------------------------------",
"Instrument : 700HS2   Atmosphere : Vac.   Collimator : 10(mm)   Spin : No",
"------------------------------------------------------------------------------------",
"Analyte               TG kV   uA      FI Acq.(keV)  Anal.(keV)  Time(sec)     DT(%)",
"------------------------------------------------------------------------------------",
"Na                    Rh 50  268-Auto Al  0 - 20    0.8 - 1.2   Live -  180   15",
"",
"<Profile>",
"Channel_info_start",
"Channel : Na",
"Points : 2048",
"Range : 0.000000 - 20.48",
"Step : 0.010000",
"Channel_info_end",
"0",
"0",
"0",
"0",
"0",
"22",
"21",
"13",
"17",
"22",
"16",
"18",
"14",
"30",
"102",
"87",
"41",
"73",
"525",
"1287",
"413",
"108",
"114",
"67",
"94",
"77",
"26",
"39",
"57",
"87",
"26",
"25",
"12",
"13",
"18",
"22",
"24",
"14",
"23",
"24",
"22",
"24",
"21",
"12",
"17",
"28",
"17",
"16",
"18",
"27",
"30",
"165",
"646",
"1033",
"274",
"76",
"72",
"165",
"126",
"44",
"36",
"44",
"49",
"60",
"63",
"76",
"67",
"88",
"128",
"95",
"55",
"60",
"60",
"55",
"60",
"61",
"75",
"83",
"117",
"102",
"153",
"423",
"736",
"520",
"202",
"140",
"127",
"146",
"160",
"200",
"484",
"3529",
"11495",
"14348",
"6168",
"1114",
"233",
"176",
"168",
"177",
"222",
"738",
"3304",
"7978",
"7969",
"4140",
"1692",
"1050",
"1744",
"2485",
"1646",
"637",
"231",
"163",
"168",
"183",
"226",
"248",
"343",
"971",
"1423",
"1108",
"532",
"469",
"593",
"662",
"356",
"245",
"206",
"194",
"159",
"148",
"117",
"125",
"131",
"120",
"139",
"117",
"125",
"96",
"127",
"110",
"106",
"120",
"136",
"103",
"123",
"122",
"113",
"115",
"123",
"135",
"103",
"119",
"85",
"129",
"121",
"87",
"101",
"102",
"115",
"108",
"98",
"106",
"106",
"117",
"119",
"119",
"84",
"101",
"88",
"117",
"84",
"96",
"94",
"111",
"104",
"77",
"85",
"90",
"110",
"91",
"96",
"91",
"94",
"107",
"123",
"116",
"101",
"92",
"92",
"95",
"101",
"96",
"90",
"107",
"91",
"91",
"78",
"98",
"99",
"102",
"73",
"107",
"82",
"87",
"78",
"76",
"85",
"66",
"89",
"89",
"89",
"86",
"69",
"79",
"71",
"76",
"87",
"75",
"70",
"62",
"61",
"82",
"65",
"73",
"70",
"62",
"64",
"78",
"61",
"74",
"60",
"51",
"60",
"83",
"75",
"69",
"72",
"55",
"80",
"70",
"50",
"67",
"64",
"73",
"59",
"82",
"59",
"60",
"55",
"57",
"54",
"80",
"66",
"64",
"64",
"65",
"60",
"65",
"64",
"72",
"65",
"86",
"77",
"88",
"94",
"99",
"154",
"177",
"220",
"275",
"356",
"386",
"407",
"376",
"367",
"290",
"248",
"182",
"172",
"87",
"102",
"112",
"148",
"174",
"261",
"257",
"259",
"149",
"108",
"82",
"57",
"29884",
"Channel_info_start",
"Channel : Mg",
"Points : 0",
"Range : 0.000000 - 0.000000",
"Step : 0.010000",
"Channel_info_end",
"Channel_info_start",
"Channel : Al",
"Points : 0",
"Range : 0.000000 - 0.000000",
"Step : 0.010000",
"Channel_info_end",
"Channel_info_start",
"Channel : Si",
"Points : 0",
"Range : 0.000000 - 0.000000",
"Step : 0.010000",
"Channel_info_end",
"Channel_info_start",
"Channel : P ",
"Points : 0",
"Range : 0.000000 - 0.000000",
"Step : 0.010000",
"Channel_info_end",
"Channel_info_start",
"Channel : S ",
"Points : 0",
"Range : 0.000000 - 0.000000",
"Step : 0.010000",
"Channel_info_end",
"Channel_info_start",
"Channel : Cl",
"Points : 0",
"Range : 0.000000 - 0.000000",
"Step : 0.010000",
"Channel_info_end",
"Channel_info_start",
"Channel : K ",
"Points : 0",
"Range : 0.000000 - 0.000000",
"Step : 0.010000",
"Channel_info_end",
"Channel_info_start",
"Channel : Ca",
"Points : 0",
"Range : 0.000000 - 0.000000",
"Step : 0.010000",
"Channel_info_end",
"Channel_info_start",
"Channel : Ti",
"Points : 0",
"Range : 0.000000 - 0.000000",
"Step : 0.010000",
"Channel_info_end",
"Channel_info_start",
"Channel : V ",
"Points : 0",
"Range : 0.000000 - 0.000000",
"Step : 0.010000",
"Channel_info_end",
"Channel_info_start",
"Channel : Cr",
"Points : 0",
"Range : 0.000000 - 0.000000",
"Step : 0.010000",
"Channel_info_end",
"Channel_info_start",
"Channel : Mn",
"Points : 0",
"Range : 0.000000 - 0.000000",
"Step : 0.010000",
"Channel_info_end",
"Channel_info_start",
"Channel : Fe",
"Points : 0",
"Range : 0.000000 - 0.000000",
"Step : 0.010000",
"Channel_info_end",
"Channel_info_start",
"Channel : Cu",
"Points : 0",
"Range : 0.000000 - 0.000000",
"Step : 0.010000",
"Channel_info_end",
"Channel_info_start",
"Channel : Zn",
"Points : 0",
"Range : 0.000000 - 0.000000",
"Step : 0.010000",
"Channel_info_end",
"Channel_info_start",
"Channel : Sr",
"Points : 0",
"Range : 0.000000 - 0.000000",
"Step : 0.010000",
"Channel_info_end",
"Channel_info_start",
"Channel : Pb",
"Points : 0",
"Range : 0.000000 - 0.000000",
"Step : 0.010000",
"Channel_info_end",
"",
"Qualitative Result",
"--------------------------------------------------------------------------------",
"Element :  Na, Dy, Yb, Si, P , Ca, Rh",
"",
"Peak List",
"--------------------------------------------------------------------------------",
"Channel               Line        keV     Net Int.(cps/uA)",
"--------------------------------------------------------------------------------",
"Na                    NaKa         1.01     0.019",
"                      DyMa         1.32     0.272",
"                      YbMa         1.55     0.020",
"                      SiKa         1.72     0.016",
"                      P Ka         2.00     0.019",
"                      CaKa         3.68     0.288",
"                      CaKb         4.01     0.037",
"                      DyLaESC      4.76     0.019",
"                      DyLL         5.75     0.220",
"                      DyLa         6.48     4.954",
"                      DyLb1        7.24     2.947",
"                      DyLb2        7.63     0.751",
"                      DyLg1        8.40     0.347",
"                      YbLb1        8.40     0.090",
"                      DyLg2        8.72     0.178",
"                      RhKaC       19.17     0.138",
"                      ----        19.45     0.060",
"                      RhKa        20.05     0.101",
"--------------------------------------------------------------------------------",
"",
"Quantitative Result",
"--------------------------------------------------------------------------------",
"Analyte               Result             Std.Dev. Proc.-Calc. Line Intensity(cps/uA)",
"--------------------------------------------------------------------------------",
"====[No. 1 Layer]====< Layer1               >===============================",
"Layer1                  18.054 ug/cm2    -------- Flux       -------- --------",
"Na                      18.054 ug/cm2    -------- ********** -------- --------",

File: DyF3 31517.20100611035532.csv
"Sample    : DyF3 31517",
"Operator  : Luís",
"Comment  : cubatao-g-policarbonato",
"Group     : kerr2007ag180cal_lt",
"Date       : 2010-06-11 03:49:34",
"",
"Mesurement Condition",
"------------------------------------------------------------------------------------",
"Instrument : 700HS2   Atmosphere : Vac.   Collimator : 10(mm)   Spin : No",
"------------------------------------------------------------------------------------",
"Analyte               TG kV   uA      FI Acq.(keV)  Anal.(keV)  Time(sec)     DT(%)",
"------------------------------------------------------------------------------------",
"Na                    Rh 50  268-Auto Al  0 - 20    0.8 - 1.2   Live -  179   14",
"",
"<Profile>",
"Channel_info_start",
"Channel : Na",
"Points : 2048",
"Range : 0.000000 - 20.48",
"Step : 0.010000",
"Channel_info_end",
"0",
"0",
"0",
"0",
"0",
"14",
"7",
"17",
"25",
"12",
"15",
"14",
"17",
"29",
"89",
"85",
"39",
"70",
"476",
"1243",
"420",
"99",
"133",
"65",
"118",
"72",
"46",
"29",
"55",
"75",
"36",
"26",
"5",
"23",
"13",
"20",
"10",
"26",
"22",
"26",
"22",
"24",
"16",
"18",
"22",
"20",
"20",
"18",
"16",
"20",
"36",
"146",
"684",
"1026",
"253",
"61",
"96",
"161",
"128",
"54",
"43",
"30",
"43",
"55",
"56",
"77",
"87",
"108",
"117",
"81",
"59",
"54",
"61",
"60",
"52",
"61",
"70",
"77",
"108",
"108",
"152",
"442",
"711",
"527",
"192",
"140",
"129",
"136",
"186",
"194",
"512",
"3653",
"11421",
"14019",
"5708",
"1005",
"231",
"168",
"155",
"159",
"250",
"771",
"3436",
"8006",
"7714",
"3947",
"1530",
"987",
"1778",
"2479",
"1486",
"571",
"215",
"161",
"152",
"178",
"210",
"219",
"356",
"925",
"1358",
"1008",
"481",
"471",
"582",
"615",
"362",
"217",
"172",
"191",
"160",
"119",
"114",
"110",
"119",
"125",
"118",
"121",
"113",
"112",
"104",
"98",
"104",
"116",
"125",
"115",
"97",
"113",
"105",
"112",
"111",
"102",
"94",
"115",
"113",
"118",
"113",
"116",
"93",
"106",
"91",
"104",
"115",
"117",
"96",
"125",
"102",
"106",
"102",
"91",
"90",
"101",
"85",
"100",
"121",
"90",
"116",
"98",
"86",
"102",
"96",
"98",
"81",
"92",
"110",
"92",
"87",
"112",
"98",
"86",
"90",
"89",
"83",
"99",
"106",
"92",
"91",
"100",
"81",
"89",
"84",
"77",
"78",
"81",
"85",
"70",
"75",
"87",
"72",
"84",
"85",
"68",
"87",
"85",
"80",
"78",
"72",
"67",
"59",
"70",
"91",
"86",
"75",
"66",
"90",
"52",
"61",
"67",
"74",
"66",
"62",
"63",
"76",
"56",
"64",
"60",
"71",
"55",
"64",
"63",
"52",
"50",
"79",
"74",
"67",
"68",
"65",
"55",
"54",
"66",
"39",
"78",
"64",
"70",
"75",
"62",
"72",
"58",
"64",
"79",
"67",
"74",
"81",
"96",
"74",
"93",
"89",
"100",
"146",
"162",
"220",
"317",
"339",
"381",
"400",
"361",
"331",
"277",
"203",
"166",
"147",
"114",
"80",
"100",
"155",
"219",
"261",
"277",
"251",
"153",
"75",
"62",
"52",
"29077",
"Channel_info_start",
"Channel : Mg",
"Points : 0",
"Range : 0.000000 - 0.000000",
"Step : 0.010000",
"Channel_info_end",
"Channel_info_start",
"Channel : Al",
"Points : 0",
"Range : 0.000000 - 0.000000",
"Step : 0.010000",
"Channel_info_end",
"Channel_info_start",
"Channel : Si",
"Points : 0",
"Range : 0.000000 - 0.000000",
"Step : 0.010000",
"Channel_info_end",
"Channel_info_start",
"Channel : P ",
"Points : 0",
"Range : 0.000000 - 0.000000",
"Step : 0.010000",
"Channel_info_end",
"Channel_info_start",
"Channel : S ",
"Points : 0",
"Range : 0.000000 - 0.000000",
"Step : 0.010000",
"Channel_info_end",
"Channel_info_start",
"Channel : Cl",
"Points : 0",
"Range : 0.000000 - 0.000000",
"Step : 0.010000",
"Channel_info_end",
"Channel_info_start",
"Channel : K ",
"Points : 0",
"Range : 0.000000 - 0.000000",
"Step : 0.010000",
"Channel_info_end",
"Channel_info_start",
"Channel : Ca",
"Points : 0",
"Range : 0.000000 - 0.000000",
"Step : 0.010000",
"Channel_info_end",
"Channel_info_start",
"Channel : Ti",
"Points : 0",
"Range : 0.000000 - 0.000000",
"Step : 0.010000",
"Channel_info_end",
"Channel_info_start",
"Channel : V ",
"Points : 0",
"Range : 0.000000 - 0.000000",
"Step : 0.010000",
"Channel_info_end",
"Channel_info_start",
"Channel : Cr",
"Points : 0",
"Range : 0.000000 - 0.000000",
"Step : 0.010000",
"Channel_info_end",
"Channel_info_start",
"Channel : Mn",
"Points : 0",
"Range : 0.000000 - 0.000000",
"Step : 0.010000",
"Channel_info_end",
"Channel_info_start",
"Channel : Fe",
"Points : 0",
"Range : 0.000000 - 0.000000",
"Step : 0.010000",
"Channel_info_end",
"Channel_info_start",
"Channel : Cu",
"Points : 0",
"Range : 0.000000 - 0.000000",
"Step : 0.010000",
"Channel_info_end",
"Channel_info_start",
"Channel : Zn",
"Points : 0",
"Range : 0.000000 - 0.000000",
"Step : 0.010000",
"Channel_info_end",
"Channel_info_start",
"Channel : Sr",
"Points : 0",
"Range : 0.000000 - 0.000000",
"Step : 0.010000",
"Channel_info_end",
"Channel_info_start",
"Channel : Pb",
"Points : 0",
"Range : 0.000000 - 0.000000",
"Step : 0.010000",
"Channel_info_end",
"",
"Qualitative Result",
"--------------------------------------------------------------------------------",
"Element :  Na, Dy, Yb, Si, P , Ca, Ru",
"",
"Peak List",
"--------------------------------------------------------------------------------",
"Channel               Line        keV     Net Int.(cps/uA)",
"--------------------------------------------------------------------------------",
"Na                    NaKa         1.00     0.021",
"                      DyMa         1.32     0.261",
"                      YbMa         1.54     0.025",
"                      SiKa         1.69     0.018",
"                      P Ka         2.01     0.018",
"                      CaKa         3.68     0.290",
"                      CaKb         4.02     0.036",
"                      DyLaESC      4.74     0.022",
"                      DyLL         5.74     0.214",
"                      DyLa         6.48     4.871",
"                      DyLb1        7.24     2.947",
"                      DyLb2        7.63     0.789",
"                      DyLg1        8.40     0.341",
"                      YbLb1        8.40     0.095",
"                      DyLg2        8.70     0.165",
"                      RuKa        19.17     0.131",
"                      ----        19.48     0.057",
"                      ----        19.95     0.062",
"--------------------------------------------------------------------------------",
"",
"Quantitative Result",
"--------------------------------------------------------------------------------",
"Analyte               Result             Std.Dev. Proc.-Calc. Line Intensity(cps/uA)",
"--------------------------------------------------------------------------------",
"====[No. 1 Layer]====< Layer1               >===============================",
"Layer1                  20.248 ug/cm2    -------- Flux       -------- --------",
"Na                      20.248 ug/cm2    -------- ********** -------- --------",

File: Fe 31500.20100611005202.csv
"Sample    : Fe 31500",
"Operator  : thiago",
"Comment  : cubatao-g-policarbonato",
"Group     : kerr2007ag180cal_lt",
"Date       : 2010-06-11 00:47:57",
"",
"Mesurement Condition",
"------------------------------------------------------------------------------------",
"Instrument : 700HS2   Atmosphere : Vac.   Collimator : 10(mm)   Spin : No",
"------------------------------------------------------------------------------------",
"Analyte               TG kV   uA      FI Acq.(keV)  Anal.(keV)  Time(sec)     DT(%)",
"------------------------------------------------------------------------------------",
"Na                    Rh 50  187-Auto Al  0 - 20    0.8 - 1.2   Live -  180   16",
"",
"<Profile>",
"Channel_info_start",
"Channel : Na",
"Points : 2048",
"Range : 0.000000 - 20.48",
"Step : 0.010000",
"Channel_info_end",
"0",
"0",
"0",
"0",
"0",
"12",
"12",
"20",
"7",
"18",
"28",
"20",
"19",
"10",
"10",
"11",
"10",
"16",
"10",
"11",
"15",
"19",
"16",
"16",
"16",
"14",
"25",
"25",
"57",
"48",
"31",
"12",
"20",
"15",
"13",
"8",
"11",
"15",
"10",
"19",
"16",
"13",
"15",
"19",
"12",
"23",
"11",
"18",
"22",
"15",
"24",
"88",
"450",
"678",
"203",
"53",
"68",
"117",
"85",
"22",
"22",
"30",
"25",
"42",
"37",
"93",
"140",
"130",
"76",
"36",
"42",
"54",
"46",
"54",
"59",
"76",
"83",
"92",
"65",
"73",
"61",
"71",
"80",
"72",
"69",
"123",
"126",
"163",
"298",
"1918",
"13626",
"35856",
"28959",
"8166",
"832",
"179",
"158",
"181",
"300",
"1395",
"3788",
"4693",
"1971",
"389",
"83",
"57",
"71",
"69",
"65",
"83",
"58",
"69",
"67",
"65",
"76",
"67",
"64",
"60",
"76",
"76",
"62",
"88",
"85",
"114",
"90",
"60",
"71",
"72",
"60",
"65",
"72",
"66",
"57",
"60",
"58",
"60",
"66",
"73",
"67",
"58",
"68",
"76",
"69",
"67",
"65",
"69",
"76",
"75",
"57",
"73",
"64",
"76",
"71",
"77",
"55",
"56",
"61",
"68",
"57",
"54",
"66",
"60",
"51",
"69",
"68",
"68",
"64",
"64",
"64",
"59",
"62",
"61",
"70",
"62",
"38",
"57",
"54",
"53",
"56",
"51",
"58",
"72",
"82",
"127",
"98",
"65",
"64",
"60",
"56",
"65",
"56",
"58",
"61",
"64",
"56",
"49",
"41",
"64",
"55",
"58",
"57",
"50",
"53",
"59",
"43",
"50",
"49",
"55",
"38",
"46",
"59",
"32",
"51",
"43",
"47",
"60",
"49",
"33",
"39",
"42",
"46",
"35",
"50",
"30",
"36",
"50",
"32",
"36",
"45",
"44",
"53",
"35",
"50",
"50",
"41",
"45",
"46",
"50",
"35",
"39",
"44",
"42",
"53",
"34",
"44",
"47",
"57",
"48",
"43",
"49",
"38",
"45",
"48",
"55",
"46",
"44",
"48",
"47",
"43",
"38",
"47",
"55",
"44",
"65",
"64",
"69",
"56",
"79",
"108",
"129",
"169",
"209",
"209",
"257",
"273",
"287",
"283",
"197",
"138",
"128",
"107",
"54",
"73",
"58",
"96",
"114",
"148",
"150",
"124",
"84",
"50",
"37",
"36",
"18828",
"Channel_info_start",
"Channel : Mg",
"Points : 0",
"Range : 0.000000 - 0.000000",
"Step : 0.010000",
"Channel_info_end",
"Channel_info_start",
"Channel : Al",
"Points : 0",
"Range : 0.000000 - 0.000000",
"Step : 0.010000",
"Channel_info_end",
"Channel_info_start",
"Channel : Si",
"Points : 0",
"Range : 0.000000 - 0.000000",
"Step : 0.010000",
"Channel_info_end",
"Channel_info_start",
"Channel : P ",
"Points : 0",
"Range : 0.000000 - 0.000000",
"Step : 0.010000",
"Channel_info_end",
"Channel_info_start",
"Channel : S ",
"Points : 0",
"Range : 0.000000 - 0.000000",
"Step : 0.010000",
"Channel_info_end",
"Channel_info_start",
"Channel : Cl",
"Points : 0",
"Range : 0.000000 - 0.000000",
"Step : 0.010000",
"Channel_info_end",
"Channel_info_start",
"Channel : K ",
"Points : 0",
"Range : 0.000000 - 0.000000",
"Step : 0.010000",
"Channel_info_end",
"Channel_info_start",
"Channel : Ca",
"Points : 0",
"Range : 0.000000 - 0.000000",
"Step : 0.010000",
"Channel_info_end",
"Channel_info_start",
"Channel : Ti",
"Points : 0",
"Range : 0.000000 - 0.000000",
"Step : 0.010000",
"Channel_info_end",
"Channel_info_start",
"Channel : V ",
"Points : 0",
"Range : 0.000000 - 0.000000",
"Step : 0.010000",
"Channel_info_end",
"Channel_info_start",
"Channel : Cr",
"Points : 0",
"Range : 0.000000 - 0.000000",
"Step : 0.010000",
"Channel_info_end",
"Channel_info_start",
"Channel : Mn",
"Points : 0",
"Range : 0.000000 - 0.000000",
"Step : 0.010000",
"Channel_info_end",
"Channel_info_start",
"Channel : Fe",
"Points : 0",
"Range : 0.000000 - 0.000000",
"Step : 0.010000",
"Channel_info_end",
"Channel_info_start",
"Channel : Cu",
"Points : 0",
"Range : 0.000000 - 0.000000",
"Step : 0.010000",
"Channel_info_end",
"Channel_info_start",
"Channel : Zn",
"Points : 0",
"Range : 0.000000 - 0.000000",
"Step : 0.010000",
"Channel_info_end",
"Channel_info_start",
"Channel : Sr",
"Points : 0",
"Range : 0.000000 - 0.000000",
"Step : 0.010000",
"Channel_info_end",
"Channel_info_start",
"Channel : Pb",
"Points : 0",
"Range : 0.000000 - 0.000000",
"Step : 0.010000",
"Channel_info_end",
"",
"Qualitative Result",
"--------------------------------------------------------------------------------",
"Element :  P , Ca, Fe, Rh",
"",
"Peak List",
"--------------------------------------------------------------------------------",
"Channel               Line        keV     Net Int.(cps/uA)",
"--------------------------------------------------------------------------------",
"Na                    P Ka         1.98     0.021",
"                      CaKa         3.68     0.288",
"                      CaKb         4.00     0.039",
"                      FeKaESC      4.64     0.071",
"                      FeKa         6.40    18.197",
"                      FeKb         7.04     2.347",
"                      FeKaSUM     12.80     0.041",
"                      RhKaC       19.28     0.126",
"                      RhKa        20.05     0.052",
"--------------------------------------------------------------------------------",
"",
"Quantitative Result",
"--------------------------------------------------------------------------------",
"Analyte               Result             Std.Dev. Proc.-Calc. Line Intensity(cps/uA)",
"--------------------------------------------------------------------------------",
"====[No. 1 Layer]====< Layer1               >===============================",
"Layer1                   0.000 ug/cm2    -------- Flux       -------- --------",