Folder: mestrado_ifusp/inputs/edxCalibration/edx_raw/2010-06 (part 5)

File: CsBr 15760.20100611013025.csv
"Sample    : CsBr 15760",
"Operator  : Luís",
"Comment  : cubatao-g-policarbonato",
"Group     : kerr2007ag180cal_lt",
"Date       : 2010-06-11 01:26:23",
"",
"Mesurement Condition",
"------------------------------------------------------------------------------------",
"Instrument : 700HS2   Atmosphere : Vac.   Collimator : 10(mm)   Spin : No",
"------------------------------------------------------------------------------------",
"Analyte               TG kV   uA      FI Acq.(keV)  Anal.(keV)  Time(sec)     DT(%)",
"------------------------------------------------------------------------------------",
"Na                    Rh 50  152-Auto Al  0 - 20    0.8 - 1.2   Live -  180   14",
"",
"<Profile>",
"Channel_info_start",
"Channel : Na",
"Points : 2048",
"Range : 0.000000 - 20.48",
"Step : 0.010000",
"Channel_info_end",
"0",
"0",
"0",
"0",
"0",
"14",
"25",
"15",
"13",
"25",
"14",
"12",
"11",
"12",
"10",
"12",
"16",
"74",
"93",
"558",
"1291",
"593",
"84",
"17",
"15",
"18",
"13",
"22",
"31",
"42",
"17",
"16",
"10",
"10",
"10",
"22",
"4",
"10",
"21",
"9",
"10",
"17",
"9",
"6",
"3",
"10",
"6",
"6",
"10",
"11",
"17",
"81",
"414",
"591",
"146",
"31",
"47",
"96",
"62",
"19",
"19",
"19",
"25",
"27",
"37",
"40",
"34",
"37",
"29",
"24",
"25",
"27",
"22",
"36",
"14",
"31",
"26",
"35",
"29",
"45",
"27",
"34",
"36",
"43",
"38",
"39",
"31",
"36",
"54",
"61",
"65",
"53",
"75",
"53",
"58",
"60",
"66",
"57",
"55",
"54",
"71",
"80",
"69",
"53",
"52",
"69",
"52",
"69",
"65",
"69",
"55",
"63",
"53",
"68",
"88",
"104",
"87",
"70",
"67",
"75",
"55",
"74",
"101",
"113",
"111",
"89",
"74",
"66",
"83",
"64",
"53",
"65",
"74",
"61",
"65",
"90",
"89",
"76",
"67",
"55",
"66",
"64",
"53",
"70",
"50",
"58",
"68",
"68",
"70",
"65",
"80",
"89",
"84",
"89",
"120",
"121",
"315",
"1717",
"7178",
"17834",
"22974",
"15948",
"5852",
"1307",
"198",
"89",
"108",
"74",
"89",
"63",
"61",
"100",
"95",
"101",
"115",
"281",
"895",
"2109",
"3107",
"3032",
"1638",
"657",
"221",
"96",
"54",
"56",
"63",
"34",
"50",
"44",
"41",
"44",
"53",
"41",
"40",
"40",
"53",
"66",
"48",
"47",
"50",
"49",
"37",
"41",
"32",
"34",
"43",
"41",
"53",
"39",
"44",
"43",
"39",
"35",
"42",
"40",
"44",
"41",
"45",
"28",
"41",
"32",
"40",
"42",
"41",
"43",
"22",
"55",
"40",
"31",
"38",
"34",
"32",
"40",
"25",
"26",
"34",
"29",
"36",
"38",
"42",
"49",
"27",
"32",
"28",
"47",
"36",
"34",
"29",
"48",
"30",
"29",
"22",
"29",
"41",
"32",
"43",
"39",
"44",
"35",
"48",
"31",
"37",
"40",
"42",
"57",
"42",
"63",
"64",
"85",
"120",
"183",
"212",
"222",
"224",
"238",
"195",
"174",
"147",
"87",
"78",
"57",
"58",
"39",
"66",
"75",
"104",
"141",
"106",
"68",
"44",
"31",
"23",
"17539",
"Channel_info_start",
"Channel : Mg",
"Points : 0",
"Range : 0.000000 - 0.000000",
"Step : 0.010000",
"Channel_info_end",
"Channel_info_start",
"Channel : Al",
"Points : 0",
"Range : 0.000000 - 0.000000",
"Step : 0.010000",
"Channel_info_end",
"Channel_info_start",
"Channel : Si",
"Points : 0",
"Range : 0.000000 - 0.000000",
"Step : 0.010000",
"Channel_info_end",
"Channel_info_start",
"Channel : P ",
"Points : 0",
"Range : 0.000000 - 0.000000",
"Step : 0.010000",
"Channel_info_end",
"Channel_info_start",
"Channel : S ",
"Points : 0",
"Range : 0.000000 - 0.000000",
"Step : 0.010000",
"Channel_info_end",
"Channel_info_start",
"Channel : Cl",
"Points : 0",
"Range : 0.000000 - 0.000000",
"Step : 0.010000",
"Channel_info_end",
"Channel_info_start",
"Channel : K ",
"Points : 0",
"Range : 0.000000 - 0.000000",
"Step : 0.010000",
"Channel_info_end",
"Channel_info_start",
"Channel : Ca",
"Points : 0",
"Range : 0.000000 - 0.000000",
"Step : 0.010000",
"Channel_info_end",
"Channel_info_start",
"Channel : Ti",
"Points : 0",
"Range : 0.000000 - 0.000000",
"Step : 0.010000",
"Channel_info_end",
"Channel_info_start",
"Channel : V ",
"Points : 0",
"Range : 0.000000 - 0.000000",
"Step : 0.010000",
"Channel_info_end",
"Channel_info_start",
"Channel : Cr",
"Points : 0",
"Range : 0.000000 - 0.000000",
"Step : 0.010000",
"Channel_info_end",
"Channel_info_start",
"Channel : Mn",
"Points : 0",
"Range : 0.000000 - 0.000000",
"Step : 0.010000",
"Channel_info_end",
"Channel_info_start",
"Channel : Fe",
"Points : 0",
"Range : 0.000000 - 0.000000",
"Step : 0.010000",
"Channel_info_end",
"Channel_info_start",
"Channel : Cu",
"Points : 0",
"Range : 0.000000 - 0.000000",
"Step : 0.010000",
"Channel_info_end",
"Channel_info_start",
"Channel : Zn",
"Points : 0",
"Range : 0.000000 - 0.000000",
"Step : 0.010000",
"Channel_info_end",
"Channel_info_start",
"Channel : Sr",
"Points : 0",
"Range : 0.000000 - 0.000000",
"Step : 0.010000",
"Channel_info_end",
"Channel_info_start",
"Channel : Pb",
"Points : 0",
"Range : 0.000000 - 0.000000",
"Step : 0.010000",
"Channel_info_end",
"",
"Qualitative Result",
"--------------------------------------------------------------------------------",
"Element :  Mg, Se, P , Ca, Rh",
"",
"Peak List",
"--------------------------------------------------------------------------------",
"Channel               Line        keV     Net Int.(cps/uA)",
"--------------------------------------------------------------------------------",
"Na                    MgKa         1.20     0.016",
"                      SeLa         1.40     0.540",
"                      P Ka         1.98     0.020",
"                      CaKa         3.70     0.301",
"                      CaKb         4.00     0.036",
"                      SeKa        11.20    15.963",
"                      SeKb        12.48     2.486",
"                      RhKaC       19.20     0.138",
"                      RhKa        20.09     0.084",
"--------------------------------------------------------------------------------",
"",
"Quantitative Result",
"--------------------------------------------------------------------------------",
"Analyte               Result             Std.Dev. Proc.-Calc. Line Intensity(cps/uA)",
"--------------------------------------------------------------------------------",
"====[No. 1 Layer]====< Layer1               >===============================",
"Layer1                   5.180 ug/cm2    -------- Flux       -------- --------",
"Mg                       5.180 ug/cm2    -------- ********** -------- --------",

File: CsBr 31512.20100525230517.csv
"Sample    : CsBr 31512",
"Operator  : luisf",
"Comment  : cubatao-g-policarbonato",
"Group     : kerr2007ag180cal_lt",
"Date       : 2010-05-25 23:01:13",
"",
"Mesurement Condition",
"------------------------------------------------------------------------------------",
"Instrument : 700HS2   Atmosphere : Vac.   Collimator : 10(mm)   Spin : No",
"------------------------------------------------------------------------------------",
"Analyte               TG kV   uA      FI Acq.(keV)  Anal.(keV)  Time(sec)     DT(%)",
"------------------------------------------------------------------------------------",
"Na                    Rh 50  237-Auto Al  0 - 20    0.8 - 1.2   Live -  179   15",
"",
"<Profile>",
"Channel_info_start",
"Channel : Na",
"Points : 2048",
"Range : 0.000000 - 20.48",
"Step : 0.010000",
"Channel_info_end",
"0",
"0",
"0",
"0",
"0",
"26",
"36",
"25",
"24",
"23",
"29",
"22",
"28",
"30",
"28",
"29",
"27",
"28",
"38",
"52",
"120",
"594",
"490",
"159",
"40",
"22",
"28",
"26",
"61",
"86",
"50",
"23",
"26",
"27",
"23",
"25",
"57",
"65",
"33",
"34",
"44",
"57",
"38",
"36",
"36",
"35",
"30",
"35",
"22",
"34",
"51",
"163",
"646",
"993",
"516",
"305",
"143",
"189",
"189",
"392",
"2283",
"6611",
"4165",
"814",
"343",
"2050",
"4254",
"3135",
"1151",
"508",
"913",
"1023",
"357",
"142",
"206",
"553",
"514",
"204",
"219",
"405",
"257",
"123",
"88",
"66",
"48",
"76",
"59",
"73",
"79",
"95",
"79",
"100",
"102",
"89",
"94",
"97",
"121",
"125",
"112",
"107",
"125",
"114",
"91",
"87",
"71",
"86",
"98",
"118",
"101",
"82",
"90",
"127",
"93",
"107",
"92",
"116",
"95",
"112",
"110",
"106",
"102",
"110",
"124",
"179",
"162",
"107",
"90",
"102",
"105",
"105",
"103",
"103",
"130",
"114",
"80",
"112",
"113",
"104",
"93",
"90",
"93",
"112",
"99",
"101",
"100",
"104",
"91",
"111",
"93",
"80",
"91",
"115",
"137",
"110",
"108",
"99",
"105",
"105",
"100",
"98",
"107",
"105",
"92",
"110",
"124",
"123",
"247",
"1098",
"4099",
"9302",
"11657",
"9151",
"3830",
"1021",
"218",
"105",
"80",
"81",
"103",
"112",
"84",
"98",
"94",
"99",
"99",
"95",
"165",
"369",
"927",
"1678",
"1758",
"1310",
"683",
"335",
"153",
"111",
"67",
"62",
"68",
"57",
"81",
"72",
"76",
"53",
"72",
"49",
"68",
"60",
"69",
"77",
"75",
"72",
"69",
"81",
"71",
"68",
"72",
"66",
"79",
"55",
"55",
"80",
"57",
"75",
"56",
"62",
"53",
"61",
"73",
"59",
"48",
"61",
"48",
"59",
"47",
"73",
"65",
"60",
"68",
"53",
"71",
"56",
"49",
"57",
"47",
"59",
"66",
"48",
"50",
"61",
"56",
"51",
"50",
"59",
"43",
"50",
"66",
"61",
"53",
"65",
"53",
"71",
"67",
"66",
"59",
"75",
"92",
"100",
"135",
"154",
"176",
"239",
"298",
"332",
"329",
"332",
"319",
"255",
"199",
"187",
"119",
"85",
"91",
"110",
"138",
"175",
"194",
"258",
"191",
"138",
"77",
"48",
"56",
"35720",
"Channel_info_start",
"Channel : Mg",
"Points : 0",
"Range : 0.000000 - 0.000000",
"Step : 0.010000",
"Channel_info_end",
"Channel_info_start",
"Channel : Al",
"Points : 0",
"Range : 0.000000 - 0.000000",
"Step : 0.010000",
"Channel_info_end",
"Channel_info_start",
"Channel : Si",
"Points : 0",
"Range : 0.000000 - 0.000000",
"Step : 0.010000",
"Channel_info_end",
"Channel_info_start",
"Channel : P ",
"Points : 0",
"Range : 0.000000 - 0.000000",
"Step : 0.010000",
"Channel_info_end",
"Channel_info_start",
"Channel : S ",
"Points : 0",
"Range : 0.000000 - 0.000000",
"Step : 0.010000",
"Channel_info_end",
"Channel_info_start",
"Channel : Cl",
"Points : 0",
"Range : 0.000000 - 0.000000",
"Step : 0.010000",
"Channel_info_end",
"Channel_info_start",
"Channel : K ",
"Points : 0",
"Range : 0.000000 - 0.000000",
"Step : 0.010000",
"Channel_info_end",
"Channel_info_start",
"Channel : Ca",
"Points : 0",
"Range : 0.000000 - 0.000000",
"Step : 0.010000",
"Channel_info_end",
"Channel_info_start",
"Channel : Ti",
"Points : 0",
"Range : 0.000000 - 0.000000",
"Step : 0.010000",
"Channel_info_end",
"Channel_info_start",
"Channel : V ",
"Points : 0",
"Range : 0.000000 - 0.000000",
"Step : 0.010000",
"Channel_info_end",
"Channel_info_start",
"Channel : Cr",
"Points : 0",
"Range : 0.000000 - 0.000000",
"Step : 0.010000",
"Channel_info_end",
"Channel_info_start",
"Channel : Mn",
"Points : 0",
"Range : 0.000000 - 0.000000",
"Step : 0.010000",
"Channel_info_end",
"Channel_info_start",
"Channel : Fe",
"Points : 0",
"Range : 0.000000 - 0.000000",
"Step : 0.010000",
"Channel_info_end",
"Channel_info_start",
"Channel : Cu",
"Points : 0",
"Range : 0.000000 - 0.000000",
"Step : 0.010000",
"Channel_info_end",
"Channel_info_start",
"Channel : Zn",
"Points : 0",
"Range : 0.000000 - 0.000000",
"Step : 0.010000",
"Channel_info_end",
"Channel_info_start",
"Channel : Sr",
"Points : 0",
"Range : 0.000000 - 0.000000",
"Step : 0.010000",
"Channel_info_end",
"Channel_info_start",
"Channel : Pb",
"Points : 0",
"Range : 0.000000 - 0.000000",
"Step : 0.010000",
"Channel_info_end",
"",
"Qualitative Result",
"--------------------------------------------------------------------------------",
"Element :  Br, P , Cs, Ce, Ru",
"",
"Peak List",
"--------------------------------------------------------------------------------",
"Channel               Line        keV     Net Int.(cps/uA)",
"--------------------------------------------------------------------------------",
"Na                    BrLa         1.50     0.174",
"                      P Ka         1.99     0.020",
"                      CsLaESC      2.56     0.016",
"                      ----         3.70     0.295",
"                      CsLa         4.28     2.272",
"                      CsLb1        4.63     1.453",
"                      CsLb2        4.94     0.327",
"                      CsLg1        5.28     0.136",
"                      CeLb1        5.28     0.035",
"                      CsLg2        5.55     0.096",
"                      BrKa        11.90     5.370",
"                      BrKb        13.28     0.838",
"                      RuKa        19.24     0.138",
"                      ----        20.00     0.078",
"--------------------------------------------------------------------------------",
"",
"Quantitative Result",
"--------------------------------------------------------------------------------",
"Analyte               Result             Std.Dev. Proc.-Calc. Line Intensity(cps/uA)",
"--------------------------------------------------------------------------------",
"====[No. 1 Layer]====< Layer1               >===============================",
"Layer1                   0.000 ug/cm2    -------- Flux       -------- --------",

File: CsBr 31512.20100611013826.csv
"Sample    : CsBr 31512",
"Operator  : Luís",
"Comment  : cubatao-g-policarbonato",
"Group     : kerr2007ag180cal_lt",
"Date       : 2010-06-11 01:34:24",
"",
"Mesurement Condition",
"------------------------------------------------------------------------------------",
"Instrument : 700HS2   Atmosphere : Vac.   Collimator : 10(mm)   Spin : No",
"------------------------------------------------------------------------------------",
"Analyte               TG kV   uA      FI Acq.(keV)  Anal.(keV)  Time(sec)     DT(%)",
"------------------------------------------------------------------------------------",
"Na                    Rh 50  237-Auto Al  0 - 20    0.8 - 1.2   Live -  180   14",
"",
"<Profile>",
"Channel_info_start",
"Channel : Na",
"Points : 2048",
"Range : 0.000000 - 20.48",
"Step : 0.010000",
"Channel_info_end",
"0",
"0",
"0",
"0",
"0",
"27",
"33",
"29",
"23",
"22",
"30",
"16",
"29",
"25",
"28",
"33",
"23",
"21",
"34",
"61",
"102",
"579",
"513",
"130",
"43",
"28",
"28",
"31",
"65",
"93",
"38",
"24",
"27",
"25",
"33",
"31",
"90",
"65",
"35",
"35",
"38",
"57",
"51",
"25",
"26",
"41",
"31",
"25",
"21",
"46",
"50",
"131",
"642",
"993",
"588",
"257",
"142",
"197",
"177",
"389",
"2292",
"6762",
"4244",
"749",
"324",
"1988",
"4202",
"3060",
"1148",
"515",
"963",
"1020",
"346",
"151",
"206",
"561",
"499",
"208",
"181",
"334",
"255",
"147",
"83",
"59",
"55",
"64",
"86",
"70",
"85",
"83",
"99",
"108",
"103",
"86",
"82",
"102",
"103",
"103",
"114",
"104",
"100",
"92",
"82",
"79",
"82",
"74",
"83",
"103",
"89",
"98",
"85",
"107",
"98",
"122",
"114",
"118",
"108",
"108",
"105",
"107",
"107",
"124",
"152",
"150",
"164",
"106",
"98",
"99",
"105",
"105",
"100",
"103",
"115",
"116",
"104",
"108",
"108",
"85",
"98",
"100",
"85",
"100",
"80",
"105",
"108",
"104",
"88",
"94",
"118",
"112",
"74",
"98",
"103",
"103",
"105",
"101",
"106",
"126",
"90",
"122",
"87",
"105",
"121",
"106",
"107",
"122",
"296",
"1224",
"4277",
"9490",
"11486",
"8726",
"3338",
"851",
"181",
"113",
"82",
"77",
"91",
"98",
"103",
"74",
"102",
"94",
"119",
"122",
"148",
"396",
"1008",
"1627",
"1740",
"1226",
"655",
"294",
"173",
"94",
"74",
"60",
"94",
"64",
"81",
"93",
"69",
"75",
"72",
"65",
"51",
"64",
"72",
"63",
"61",
"73",
"54",
"79",
"62",
"57",
"64",
"70",
"53",
"60",
"67",
"60",
"77",
"62",
"63",
"69",
"41",
"60",
"54",
"66",
"86",
"68",
"61",
"59",
"43",
"57",
"52",
"67",
"65",
"51",
"35",
"63",
"62",
"55",
"61",
"50",
"60",
"60",
"61",
"67",
"47",
"61",
"67",
"55",
"54",
"51",
"69",
"69",
"59",
"59",
"59",
"65",
"56",
"73",
"80",
"80",
"99",
"117",
"126",
"143",
"179",
"261",
"298",
"340",
"368",
"339",
"282",
"247",
"186",
"151",
"124",
"78",
"88",
"88",
"138",
"152",
"200",
"202",
"178",
"119",
"67",
"64",
"53",
"35309",
"Channel_info_start",
"Channel : Mg",
"Points : 0",
"Range : 0.000000 - 0.000000",
"Step : 0.010000",
"Channel_info_end",
"Channel_info_start",
"Channel : Al",
"Points : 0",
"Range : 0.000000 - 0.000000",
"Step : 0.010000",
"Channel_info_end",
"Channel_info_start",
"Channel : Si",
"Points : 0",
"Range : 0.000000 - 0.000000",
"Step : 0.010000",
"Channel_info_end",
"Channel_info_start",
"Channel : P ",
"Points : 0",
"Range : 0.000000 - 0.000000",
"Step : 0.010000",
"Channel_info_end",
"Channel_info_start",
"Channel : S ",
"Points : 0",
"Range : 0.000000 - 0.000000",
"Step : 0.010000",
"Channel_info_end",
"Channel_info_start",
"Channel : Cl",
"Points : 0",
"Range : 0.000000 - 0.000000",
"Step : 0.010000",
"Channel_info_end",
"Channel_info_start",
"Channel : K ",
"Points : 0",
"Range : 0.000000 - 0.000000",
"Step : 0.010000",
"Channel_info_end",
"Channel_info_start",
"Channel : Ca",
"Points : 0",
"Range : 0.000000 - 0.000000",
"Step : 0.010000",
"Channel_info_end",
"Channel_info_start",
"Channel : Ti",
"Points : 0",
"Range : 0.000000 - 0.000000",
"Step : 0.010000",
"Channel_info_end",
"Channel_info_start",
"Channel : V ",
"Points : 0",
"Range : 0.000000 - 0.000000",
"Step : 0.010000",
"Channel_info_end",
"Channel_info_start",
"Channel : Cr",
"Points : 0",
"Range : 0.000000 - 0.000000",
"Step : 0.010000",
"Channel_info_end",
"Channel_info_start",
"Channel : Mn",
"Points : 0",
"Range : 0.000000 - 0.000000",
"Step : 0.010000",
"Channel_info_end",
"Channel_info_start",
"Channel : Fe",
"Points : 0",
"Range : 0.000000 - 0.000000",
"Step : 0.010000",
"Channel_info_end",
"Channel_info_start",
"Channel : Cu",
"Points : 0",
"Range : 0.000000 - 0.000000",
"Step : 0.010000",
"Channel_info_end",
"Channel_info_start",
"Channel : Zn",
"Points : 0",
"Range : 0.000000 - 0.000000",
"Step : 0.010000",
"Channel_info_end",
"Channel_info_start",
"Channel : Sr",
"Points : 0",
"Range : 0.000000 - 0.000000",
"Step : 0.010000",
"Channel_info_end",
"Channel_info_start",
"Channel : Pb",
"Points : 0",
"Range : 0.000000 - 0.000000",
"Step : 0.010000",
"Channel_info_end",
"",
"Qualitative Result",
"--------------------------------------------------------------------------------",
"Element :  Br, P , Cs, Ce",
"",
"Peak List",
"--------------------------------------------------------------------------------",
"Channel               Line        keV     Net Int.(cps/uA)",
"--------------------------------------------------------------------------------",
"Na                    BrLa         1.51     0.171",
"                      P Ka         2.00     0.019",
"                      CsLaESC      2.55     0.015",
"                      ----         3.70     0.295",
"                      CsLa         4.28     2.272",
"                      CsLb1        4.63     1.416",
"                      CsLb2        4.93     0.324",
"                      CsLg1        5.26     0.136",
"                      CeLb1        5.26     0.027",
"                      CsLg2        5.54     0.088",
"                      BrKa        11.88     5.346",
"                      BrKb        13.28     0.839",
"                      ----        19.12     0.132",
"                      ----        19.40     0.076",
"                      ----        19.92     0.047",
"--------------------------------------------------------------------------------",
"",
"Quantitative Result",
"--------------------------------------------------------------------------------",
"Analyte               Result             Std.Dev. Proc.-Calc. Line Intensity(cps/uA)",
"--------------------------------------------------------------------------------",
"====[No. 1 Layer]====< Layer1               >===============================",
"Layer1                   0.000 ug/cm2    -------- Flux       -------- --------",

File: Cu 31521.20100525220957.csv
"Sample    : Cu 31521",
"Operator  : luisf",
"Comment  : cubatao-g-policarbonato",
"Group     : kerr2007ag180cal_lt",
"Date       : 2010-05-25 22:05:54",
"",
"Mesurement Condition",
"------------------------------------------------------------------------------------",
"Instrument : 700HS2   Atmosphere : Vac.   Collimator : 10(mm)   Spin : No",
"------------------------------------------------------------------------------------",
"Analyte               TG kV   uA      FI Acq.(keV)  Anal.(keV)  Time(sec)     DT(%)",
"------------------------------------------------------------------------------------",
"Na                    Rh 50  152-Auto Al  0 - 20    0.8 - 1.2   Live -  179   15",
"",
"<Profile>",
"Channel_info_start",
"Channel : Na",
"Points : 2048",
"Range : 0.000000 - 20.48",
"Step : 0.010000",
"Channel_info_end",
"0",
"0",
"0",
"0",
"0",
"12",
"14",
"13",
"10",
"11",
"12",
"14",
"37",
"193",
"189",
"46",
"13",
"9",
"8",
"8",
"4",
"11",
"8",
"7",
"12",
"15",
"17",
"17",
"39",
"54",
"25",
"13",
"9",
"16",
"18",
"16",
"10",
"7",
"17",
"12",
"15",
"10",
"9",
"10",
"13",
"8",
"5",
"8",
"12",
"15",
"15",
"87",
"358",
"563",
"188",
"30",
"47",
"84",
"67",
"35",
"13",
"15",
"22",
"28",
"29",
"39",
"17",
"29",
"18",
"27",
"25",
"20",
"33",
"29",
"22",
"25",
"21",
"20",
"23",
"37",
"28",
"40",
"37",
"37",
"49",
"49",
"61",
"55",
"64",
"113",
"134",
"85",
"72",
"63",
"71",
"51",
"62",
"68",
"75",
"87",
"104",
"77",
"77",
"99",
"98",
"87",
"90",
"85",
"89",
"104",
"136",
"199",
"1077",
"7600",
"22820",
"31094",
"15965",
"3440",
"358",
"103",
"93",
"110",
"129",
"162",
"248",
"905",
"2524",
"4135",
"2954",
"998",
"197",
"82",
"60",
"66",
"55",
"61",
"65",
"58",
"51",
"59",
"64",
"59",
"52",
"40",
"46",
"57",
"48",
"55",
"51",
"52",
"41",
"59",
"54",
"57",
"48",
"65",
"47",
"45",
"50",
"62",
"54",
"47",
"41",
"30",
"64",
"48",
"37",
"53",
"49",
"42",
"33",
"53",
"47",
"53",
"62",
"48",
"39",
"52",
"40",
"43",
"40",
"49",
"38",
"61",
"50",
"43",
"49",
"35",
"48",
"42",
"47",
"32",
"39",
"40",
"47",
"33",
"37",
"45",
"40",
"38",
"41",
"42",
"42",
"40",
"39",
"45",
"40",
"41",
"42",
"37",
"35",
"40",
"48",
"43",
"33",
"33",
"43",
"46",
"28",
"37",
"46",
"35",
"39",
"50",
"39",
"33",
"36",
"54",
"58",
"73",
"67",
"76",
"57",
"47",
"35",
"41",
"35",
"36",
"29",
"27",
"36",
"40",
"46",
"41",
"48",
"38",
"35",
"46",
"60",
"75",
"60",
"40",
"38",
"28",
"37",
"25",
"40",
"30",
"35",
"35",
"33",
"27",
"40",
"53",
"40",
"27",
"58",
"61",
"89",
"103",
"128",
"149",
"173",
"202",
"207",
"220",
"204",
"171",
"115",
"111",
"93",
"64",
"58",
"62",
"60",
"92",
"113",
"112",
"104",
"72",
"46",
"41",
"36",
"15573",
"Channel_info_start",
"Channel : Mg",
"Points : 0",
"Range : 0.000000 - 0.000000",
"Step : 0.010000",
"Channel_info_end",
"Channel_info_start",
"Channel : Al",
"Points : 0",
"Range : 0.000000 - 0.000000",
"Step : 0.010000",
"Channel_info_end",
"Channel_info_start",
"Channel : Si",
"Points : 0",
"Range : 0.000000 - 0.000000",
"Step : 0.010000",
"Channel_info_end",
"Channel_info_start",
"Channel : P ",
"Points : 0",
"Range : 0.000000 - 0.000000",
"Step : 0.010000",
"Channel_info_end",
"Channel_info_start",
"Channel : S ",
"Points : 0",
"Range : 0.000000 - 0.000000",
"Step : 0.010000",
"Channel_info_end",
"Channel_info_start",
"Channel : Cl",
"Points : 0",
"Range : 0.000000 - 0.000000",
"Step : 0.010000",
"Channel_info_end",
"Channel_info_start",
"Channel : K ",
"Points : 0",
"Range : 0.000000 - 0.000000",
"Step : 0.010000",
"Channel_info_end",
"Channel_info_start",
"Channel : Ca",
"Points : 0",
"Range : 0.000000 - 0.000000",
"Step : 0.010000",
"Channel_info_end",
"Channel_info_start",
"Channel : Ti",
"Points : 0",
"Range : 0.000000 - 0.000000",
"Step : 0.010000",
"Channel_info_end",
"Channel_info_start",
"Channel : V ",
"Points : 0",
"Range : 0.000000 - 0.000000",
"Step : 0.010000",
"Channel_info_end",
"Channel_info_start",
"Channel : Cr",
"Points : 0",
"Range : 0.000000 - 0.000000",
"Step : 0.010000",
"Channel_info_end",
"Channel_info_start",
"Channel : Mn",
"Points : 0",
"Range : 0.000000 - 0.000000",
"Step : 0.010000",
"Channel_info_end",
"Channel_info_start",
"Channel : Fe",
"Points : 0",
"Range : 0.000000 - 0.000000",
"Step : 0.010000",
"Channel_info_end",
"Channel_info_start",
"Channel : Cu",
"Points : 0",
"Range : 0.000000 - 0.000000",
"Step : 0.010000",
"Channel_info_end",
"Channel_info_start",
"Channel : Zn",
"Points : 0",
"Range : 0.000000 - 0.000000",
"Step : 0.010000",
"Channel_info_end",
"Channel_info_start",
"Channel : Sr",
"Points : 0",
"Range : 0.000000 - 0.000000",
"Step : 0.010000",
"Channel_info_end",
"Channel_info_start",
"Channel : Pb",
"Points : 0",
"Range : 0.000000 - 0.000000",
"Step : 0.010000",
"Channel_info_end",
"",
"Qualitative Result",
"--------------------------------------------------------------------------------",
"Element :  Cu, P , Ca, Ru",
"",
"Peak List",
"--------------------------------------------------------------------------------",
"Channel               Line        keV     Net Int.(cps/uA)",
"--------------------------------------------------------------------------------",
"Na                    CuLa         0.95     0.089",
"                      P Ka         2.02     0.020",
"                      CaKa         3.68     0.302",
"                      CaKb         4.02     0.032",
"                      CuKaESC      6.31     0.048",
"                      CuKa         8.04    19.516",
"                      CuKb         8.89     2.547",
"                      CuKaSUM     16.04     0.044",
"                      ----        19.09     0.132",
"                      RuKa        19.32     0.101",
"--------------------------------------------------------------------------------",
"",
"Quantitative Result",
"--------------------------------------------------------------------------------",
"Analyte               Result             Std.Dev. Proc.-Calc. Line Intensity(cps/uA)",
"--------------------------------------------------------------------------------",
"====[No. 1 Layer]====< Layer1               >===============================",
"Layer1                   0.000 ug/cm2    -------- Flux       -------- --------",