Folder: mestrado_ifusp/inputs/edxCalibration/edx_raw/2010-06 (part 15)

File: Tb 31519.20100626151909.csv
"Sample    : Tb 31519",
"Operator  : thiago",
"Comment  : cubatao-g-policarbonato",
"Group     : kerr2007ag180cal_lt",
"Date       : 2010-06-26 15:15:05",
"",
"Mesurement Condition",
"------------------------------------------------------------------------------------",
"Instrument : 700HS2   Atmosphere : Vac.   Collimator : 10(mm)   Spin : No",
"------------------------------------------------------------------------------------",
"Analyte               TG kV   uA      FI Acq.(keV)  Anal.(keV)  Time(sec)     DT(%)",
"------------------------------------------------------------------------------------",
"Na                    Rh 50  168-Auto Al  0 - 20    0.8 - 1.2   Live -  179   15",
"",
"<Profile>",
"Channel_info_start",
"Channel : Na",
"Points : 2048",
"Range : 0.000000 - 20.48",
"Step : 0.010000",
"Channel_info_end",
"0",
"0",
"0",
"0",
"1",
"30",
"35",
"36",
"61",
"101",
"71",
"37",
"28",
"44",
"33",
"30",
"35",
"32",
"36",
"29",
"42",
"37",
"46",
"47",
"33",
"109",
"280",
"233",
"132",
"160",
"193",
"320",
"458",
"2628",
"4351",
"3546",
"1344",
"351",
"425",
"225",
"71",
"67",
"59",
"82",
"181",
"160",
"73",
"28",
"22",
"22",
"27",
"74",
"257",
"356",
"146",
"37",
"33",
"59",
"58",
"26",
"24",
"37",
"26",
"33",
"32",
"45",
"48",
"49",
"51",
"42",
"52",
"65",
"47",
"29",
"41",
"54",
"47",
"57",
"52",
"40",
"45",
"55",
"62",
"59",
"74",
"73",
"63",
"86",
"89",
"98",
"89",
"109",
"108",
"98",
"86",
"96",
"97",
"100",
"108",
"91",
"116",
"83",
"99",
"107",
"85",
"87",
"98",
"109",
"102",
"99",
"91",
"102",
"107",
"87",
"141",
"191",
"124",
"101",
"98",
"113",
"98",
"101",
"119",
"126",
"134",
"122",
"115",
"125",
"139",
"207",
"446",
"746",
"604",
"284",
"125",
"132",
"101",
"108",
"82",
"108",
"94",
"85",
"114",
"128",
"135",
"133",
"180",
"412",
"1624",
"5229",
"9466",
"10779",
"6400",
"2080",
"447",
"172",
"104",
"94",
"110",
"116",
"149",
"234",
"217",
"227",
"166",
"84",
"88",
"83",
"100",
"116",
"109",
"100",
"189",
"283",
"393",
"547",
"590",
"805",
"2163",
"5194",
"7264",
"6180",
"3422",
"1430",
"701",
"479",
"384",
"285",
"168",
"119",
"99",
"87",
"88",
"78",
"62",
"79",
"77",
"47",
"54",
"74",
"66",
"67",
"71",
"101",
"108",
"100",
"99",
"127",
"209",
"515",
"882",
"1084",
"752",
"444",
"257",
"293",
"379",
"376",
"250",
"188",
"94",
"73",
"54",
"86",
"57",
"82",
"58",
"53",
"47",
"54",
"48",
"57",
"38",
"50",
"52",
"58",
"60",
"52",
"42",
"37",
"49",
"58",
"46",
"35",
"49",
"60",
"36",
"54",
"40",
"38",
"45",
"36",
"37",
"25",
"38",
"48",
"50",
"46",
"39",
"49",
"48",
"62",
"57",
"53",
"64",
"50",
"67",
"75",
"92",
"102",
"136",
"183",
"191",
"237",
"232",
"273",
"239",
"214",
"178",
"129",
"88",
"73",
"65",
"83",
"116",
"168",
"205",
"265",
"245",
"132",
"91",
"59",
"41",
"22227",
"Channel_info_start",
"Channel : Mg",
"Points : 0",
"Range : 0.000000 - 0.000000",
"Step : 0.010000",
"Channel_info_end",
"Channel_info_start",
"Channel : Al",
"Points : 0",
"Range : 0.000000 - 0.000000",
"Step : 0.010000",
"Channel_info_end",
"Channel_info_start",
"Channel : Si",
"Points : 0",
"Range : 0.000000 - 0.000000",
"Step : 0.010000",
"Channel_info_end",
"Channel_info_start",
"Channel : P ",
"Points : 0",
"Range : 0.000000 - 0.000000",
"Step : 0.010000",
"Channel_info_end",
"Channel_info_start",
"Channel : S ",
"Points : 0",
"Range : 0.000000 - 0.000000",
"Step : 0.010000",
"Channel_info_end",
"Channel_info_start",
"Channel : Cl",
"Points : 0",
"Range : 0.000000 - 0.000000",
"Step : 0.010000",
"Channel_info_end",
"Channel_info_start",
"Channel : K ",
"Points : 0",
"Range : 0.000000 - 0.000000",
"Step : 0.010000",
"Channel_info_end",
"Channel_info_start",
"Channel : Ca",
"Points : 0",
"Range : 0.000000 - 0.000000",
"Step : 0.010000",
"Channel_info_end",
"Channel_info_start",
"Channel : Ti",
"Points : 0",
"Range : 0.000000 - 0.000000",
"Step : 0.010000",
"Channel_info_end",
"Channel_info_start",
"Channel : V ",
"Points : 0",
"Range : 0.000000 - 0.000000",
"Step : 0.010000",
"Channel_info_end",
"Channel_info_start",
"Channel : Cr",
"Points : 0",
"Range : 0.000000 - 0.000000",
"Step : 0.010000",
"Channel_info_end",
"Channel_info_start",
"Channel : Mn",
"Points : 0",
"Range : 0.000000 - 0.000000",
"Step : 0.010000",
"Channel_info_end",
"Channel_info_start",
"Channel : Fe",
"Points : 0",
"Range : 0.000000 - 0.000000",
"Step : 0.010000",
"Channel_info_end",
"Channel_info_start",
"Channel : Cu",
"Points : 0",
"Range : 0.000000 - 0.000000",
"Step : 0.010000",
"Channel_info_end",
"Channel_info_start",
"Channel : Zn",
"Points : 0",
"Range : 0.000000 - 0.000000",
"Step : 0.010000",
"Channel_info_end",
"Channel_info_start",
"Channel : Sr",
"Points : 0",
"Range : 0.000000 - 0.000000",
"Step : 0.010000",
"Channel_info_end",
"Channel_info_start",
"Channel : Pb",
"Points : 0",
"Range : 0.000000 - 0.000000",
"Step : 0.010000",
"Channel_info_end",
"",
"Qualitative Result",
"--------------------------------------------------------------------------------",
"Element :  Pb, S , Cl, Ca, Ir, Ru",
"",
"Peak List",
"--------------------------------------------------------------------------------",
"Channel               Line        keV     Net Int.(cps/uA)",
"--------------------------------------------------------------------------------",
"Na                    ----         0.61     0.027",
"                      ----         0.71     0.017",
"                      ----         1.84     0.103",
"                      ----         2.15     0.060",
"                      PbMa         2.37     1.216",
"                      S Ka         2.37     0.538",
"                      ClKa         2.68     0.150",
"                      ----         3.10     0.059",
"                      CaKa         3.68     0.159",
"                      CaKb         4.01     0.020",
"                      PbLL         9.19     0.270",
"                      IrLa         9.19     0.089",
"                      PbLa        10.55     6.758",
"                      IrLb1       10.71     0.049",
"                      PbLn        11.30     0.076",
"                      PbLb4       12.25     0.164",
"                      PbLb1       12.61     4.556",
"                      PbLg1       14.76     0.662",
"                      PbLg2       15.16     0.195",
"                      RuKa        19.25     0.147",
"                      ----        19.50     0.050",
"                      ----        19.97     0.098",
"--------------------------------------------------------------------------------",
"",
"Quantitative Result",
"--------------------------------------------------------------------------------",
"Analyte               Result             Std.Dev. Proc.-Calc. Line Intensity(cps/uA)",
"--------------------------------------------------------------------------------",
"====[No. 1 Layer]====< Layer1               >===============================",
"Layer1                   0.000 ug/cm2    -------- Flux       -------- --------",

File: Te 15768.20100526003448.csv
"Sample    : Te 15768",
"Operator  : luisf",
"Comment  : cubatao-g-policarbonato",
"Group     : kerr2007ag180cal_lt",
"Date       : 2010-05-26 00:30:37",
"",
"Mesurement Condition",
"------------------------------------------------------------------------------------",
"Instrument : 700HS2   Atmosphere : Vac.   Collimator : 10(mm)   Spin : No",
"------------------------------------------------------------------------------------",
"Analyte               TG kV   uA      FI Acq.(keV)  Anal.(keV)  Time(sec)     DT(%)",
"------------------------------------------------------------------------------------",
"Na                    Rh 50  360-Auto Al  0 - 20    0.8 - 1.2   Live -  179   15",
"",
"<Profile>",
"Channel_info_start",
"Channel : Na",
"Points : 2048",
"Range : 0.000000 - 20.48",
"Step : 0.010000",
"Channel_info_end",
"0",
"0",
"0",
"0",
"0",
"58",
"35",
"35",
"36",
"39",
"40",
"45",
"52",
"44",
"44",
"54",
"57",
"48",
"34",
"40",
"39",
"49",
"35",
"47",
"44",
"71",
"52",
"57",
"172",
"242",
"118",
"99",
"144",
"196",
"100",
"61",
"77",
"101",
"78",
"61",
"65",
"83",
"54",
"101",
"72",
"108",
"191",
"609",
"698",
"329",
"230",
"527",
"1711",
"8564",
"13585",
"5244",
"1639",
"6445",
"8414",
"4717",
"1574",
"1758",
"1724",
"592",
"458",
"1022",
"826",
"319",
"488",
"718",
"330",
"136",
"70",
"72",
"61",
"94",
"89",
"113",
"97",
"132",
"86",
"100",
"97",
"93",
"105",
"107",
"126",
"121",
"134",
"157",
"158",
"154",
"131",
"134",
"123",
"144",
"127",
"156",
"127",
"149",
"157",
"160",
"150",
"180",
"185",
"196",
"181",
"160",
"165",
"157",
"162",
"176",
"192",
"206",
"219",
"198",
"221",
"160",
"147",
"187",
"164",
"209",
"209",
"207",
"183",
"191",
"169",
"177",
"168",
"168",
"152",
"159",
"157",
"172",
"138",
"176",
"179",
"154",
"138",
"167",
"173",
"198",
"217",
"236",
"155",
"154",
"144",
"168",
"151",
"125",
"147",
"164",
"155",
"151",
"174",
"147",
"139",
"150",
"149",
"163",
"158",
"149",
"133",
"137",
"138",
"149",
"147",
"150",
"177",
"182",
"164",
"145",
"155",
"146",
"155",
"110",
"131",
"131",
"128",
"123",
"144",
"143",
"133",
"130",
"133",
"103",
"122",
"137",
"126",
"115",
"137",
"137",
"134",
"112",
"125",
"125",
"117",
"128",
"112",
"121",
"134",
"110",
"118",
"101",
"103",
"106",
"108",
"125",
"130",
"111",
"103",
"114",
"110",
"101",
"102",
"124",
"98",
"85",
"101",
"111",
"101",
"98",
"113",
"98",
"82",
"82",
"95",
"108",
"107",
"82",
"84",
"97",
"79",
"105",
"83",
"85",
"90",
"89",
"90",
"88",
"84",
"90",
"87",
"81",
"83",
"88",
"81",
"105",
"88",
"84",
"76",
"76",
"81",
"74",
"85",
"81",
"91",
"91",
"90",
"89",
"100",
"102",
"94",
"105",
"134",
"118",
"125",
"163",
"203",
"260",
"292",
"400",
"457",
"506",
"537",
"474",
"475",
"412",
"269",
"237",
"211",
"159",
"124",
"130",
"195",
"253",
"316",
"355",
"347",
"244",
"134",
"94",
"85",
"100006",
"Channel_info_start",
"Channel : Mg",
"Points : 0",
"Range : 0.000000 - 0.000000",
"Step : 0.010000",
"Channel_info_end",
"Channel_info_start",
"Channel : Al",
"Points : 0",
"Range : 0.000000 - 0.000000",
"Step : 0.010000",
"Channel_info_end",
"Channel_info_start",
"Channel : Si",
"Points : 0",
"Range : 0.000000 - 0.000000",
"Step : 0.010000",
"Channel_info_end",
"Channel_info_start",
"Channel : P ",
"Points : 0",
"Range : 0.000000 - 0.000000",
"Step : 0.010000",
"Channel_info_end",
"Channel_info_start",
"Channel : S ",
"Points : 0",
"Range : 0.000000 - 0.000000",
"Step : 0.010000",
"Channel_info_end",
"Channel_info_start",
"Channel : Cl",
"Points : 0",
"Range : 0.000000 - 0.000000",
"Step : 0.010000",
"Channel_info_end",
"Channel_info_start",
"Channel : K ",
"Points : 0",
"Range : 0.000000 - 0.000000",
"Step : 0.010000",
"Channel_info_end",
"Channel_info_start",
"Channel : Ca",
"Points : 0",
"Range : 0.000000 - 0.000000",
"Step : 0.010000",
"Channel_info_end",
"Channel_info_start",
"Channel : Ti",
"Points : 0",
"Range : 0.000000 - 0.000000",
"Step : 0.010000",
"Channel_info_end",
"Channel_info_start",
"Channel : V ",
"Points : 0",
"Range : 0.000000 - 0.000000",
"Step : 0.010000",
"Channel_info_end",
"Channel_info_start",
"Channel : Cr",
"Points : 0",
"Range : 0.000000 - 0.000000",
"Step : 0.010000",
"Channel_info_end",
"Channel_info_start",
"Channel : Mn",
"Points : 0",
"Range : 0.000000 - 0.000000",
"Step : 0.010000",
"Channel_info_end",
"Channel_info_start",
"Channel : Fe",
"Points : 0",
"Range : 0.000000 - 0.000000",
"Step : 0.010000",
"Channel_info_end",
"Channel_info_start",
"Channel : Cu",
"Points : 0",
"Range : 0.000000 - 0.000000",
"Step : 0.010000",
"Channel_info_end",
"Channel_info_start",
"Channel : Zn",
"Points : 0",
"Range : 0.000000 - 0.000000",
"Step : 0.010000",
"Channel_info_end",
"Channel_info_start",
"Channel : Sr",
"Points : 0",
"Range : 0.000000 - 0.000000",
"Step : 0.010000",
"Channel_info_end",
"Channel_info_start",
"Channel : Pb",
"Points : 0",
"Range : 0.000000 - 0.000000",
"Step : 0.010000",
"Channel_info_end",
"",
"Qualitative Result",
"--------------------------------------------------------------------------------",
"Element :  P , S , Te, K , Ca, Ge, Ru",
"",
"Peak List",
"--------------------------------------------------------------------------------",
"Channel               Line        keV     Net Int.(cps/uA)",
"--------------------------------------------------------------------------------",
"Na                    P Ka         2.02     0.039",
"                      S Ka         2.31     0.022",
"                      TeLL         3.34     0.085",
"                      K Ka         3.34     0.058",
"                      CaKa         3.76     2.959",
"                      CaKb         4.04     0.414",
"                      TeLb1        4.04     1.449",
"                      TeLb2        4.30     0.351",
"                      TeLg1        4.58     0.161",
"                      TeLg2        4.81     0.114",
"                      GeKa         9.96     0.027",
"                      RuKa        19.20     0.137",
"                      ----        19.52     0.035",
"                      ----        19.99     0.074",
"--------------------------------------------------------------------------------",
"",
"Quantitative Result",
"--------------------------------------------------------------------------------",
"Analyte               Result             Std.Dev. Proc.-Calc. Line Intensity(cps/uA)",
"--------------------------------------------------------------------------------",
"====[No. 1 Layer]====< Layer1               >===============================",
"Layer1                   0.000 ug/cm2    -------- Flux       -------- --------",

File: Te 15768.20100611032816.csv
"Sample    : Te 15768",
"Operator  : Luís",
"Comment  : cubatao-g-policarbonato",
"Group     : kerr2007ag180cal_lt",
"Date       : 2010-06-11 03:24:05",
"",
"Mesurement Condition",
"------------------------------------------------------------------------------------",
"Instrument : 700HS2   Atmosphere : Vac.   Collimator : 10(mm)   Spin : No",
"------------------------------------------------------------------------------------",
"Analyte               TG kV   uA      FI Acq.(keV)  Anal.(keV)  Time(sec)     DT(%)",
"------------------------------------------------------------------------------------",
"Na                    Rh 50  360-Auto Al  0 - 20    0.8 - 1.2   Live -  179   15",
"",
"<Profile>",
"Channel_info_start",
"Channel : Na",
"Points : 2048",
"Range : 0.000000 - 20.48",
"Step : 0.010000",
"Channel_info_end",
"0",
"0",
"0",
"0",
"0",
"41",
"42",
"46",
"51",
"50",
"35",
"50",
"41",
"47",
"41",
"45",
"37",
"39",
"56",
"39",
"42",
"44",
"42",
"58",
"52",
"68",
"51",
"71",
"134",
"265",
"106",
"95",
"140",
"173",
"99",
"84",
"75",
"93",
"81",
"84",
"73",
"81",
"60",
"70",
"78",
"96",
"172",
"655",
"735",
"334",
"248",
"578",
"1764",
"9026",
"13263",
"5222",
"1573",
"6859",
"8563",
"4646",
"1675",
"1926",
"1652",
"524",
"488",
"1065",
"784",
"346",
"438",
"780",
"367",
"151",
"80",
"88",
"69",
"101",
"80",
"105",
"106",
"99",
"74",
"109",
"84",
"82",
"106",
"113",
"130",
"117",
"154",
"163",
"134",
"168",
"159",
"130",
"148",
"124",
"130",
"117",
"139",
"137",
"150",
"167",
"163",
"178",
"180",
"176",
"159",
"187",
"162",
"171",
"162",
"169",
"192",
"185",
"178",
"221",
"225",
"173",
"170",
"171",
"159",
"175",
"198",
"241",
"229",
"185",
"181",
"178",
"172",
"167",
"185",
"178",
"172",
"155",
"164",
"176",
"161",
"158",
"147",
"182",
"160",
"213",
"239",
"257",
"211",
"155",
"146",
"181",
"172",
"169",
"156",
"161",
"166",
"145",
"143",
"159",
"163",
"182",
"138",
"158",
"159",
"173",
"133",
"159",
"137",
"147",
"162",
"171",
"204",
"201",
"164",
"149",
"158",
"145",
"129",
"146",
"132",
"114",
"147",
"136",
"131",
"126",
"122",
"130",
"124",
"118",
"136",
"117",
"133",
"121",
"120",
"140",
"132",
"118",
"119",
"132",
"127",
"142",
"123",
"117",
"110",
"131",
"111",
"114",
"112",
"90",
"91",
"115",
"105",
"110",
"131",
"127",
"109",
"106",
"118",
"111",
"82",
"101",
"108",
"97",
"83",
"111",
"105",
"100",
"100",
"98",
"99",
"95",
"100",
"99",
"90",
"98",
"109",
"83",
"80",
"109",
"80",
"99",
"85",
"102",
"94",
"94",
"108",
"96",
"88",
"81",
"86",
"91",
"91",
"85",
"71",
"93",
"84",
"90",
"95",
"81",
"85",
"91",
"97",
"103",
"103",
"114",
"95",
"117",
"109",
"126",
"127",
"176",
"212",
"260",
"327",
"429",
"452",
"466",
"496",
"525",
"462",
"433",
"327",
"225",
"174",
"159",
"129",
"144",
"203",
"271",
"335",
"394",
"306",
"201",
"129",
"99",
"81",
"100031",
"Channel_info_start",
"Channel : Mg",
"Points : 0",
"Range : 0.000000 - 0.000000",
"Step : 0.010000",
"Channel_info_end",
"Channel_info_start",
"Channel : Al",
"Points : 0",
"Range : 0.000000 - 0.000000",
"Step : 0.010000",
"Channel_info_end",
"Channel_info_start",
"Channel : Si",
"Points : 0",
"Range : 0.000000 - 0.000000",
"Step : 0.010000",
"Channel_info_end",
"Channel_info_start",
"Channel : P ",
"Points : 0",
"Range : 0.000000 - 0.000000",
"Step : 0.010000",
"Channel_info_end",
"Channel_info_start",
"Channel : S ",
"Points : 0",
"Range : 0.000000 - 0.000000",
"Step : 0.010000",
"Channel_info_end",
"Channel_info_start",
"Channel : Cl",
"Points : 0",
"Range : 0.000000 - 0.000000",
"Step : 0.010000",
"Channel_info_end",
"Channel_info_start",
"Channel : K ",
"Points : 0",
"Range : 0.000000 - 0.000000",
"Step : 0.010000",
"Channel_info_end",
"Channel_info_start",
"Channel : Ca",
"Points : 0",
"Range : 0.000000 - 0.000000",
"Step : 0.010000",
"Channel_info_end",
"Channel_info_start",
"Channel : Ti",
"Points : 0",
"Range : 0.000000 - 0.000000",
"Step : 0.010000",
"Channel_info_end",
"Channel_info_start",
"Channel : V ",
"Points : 0",
"Range : 0.000000 - 0.000000",
"Step : 0.010000",
"Channel_info_end",
"Channel_info_start",
"Channel : Cr",
"Points : 0",
"Range : 0.000000 - 0.000000",
"Step : 0.010000",
"Channel_info_end",
"Channel_info_start",
"Channel : Mn",
"Points : 0",
"Range : 0.000000 - 0.000000",
"Step : 0.010000",
"Channel_info_end",
"Channel_info_start",
"Channel : Fe",
"Points : 0",
"Range : 0.000000 - 0.000000",
"Step : 0.010000",
"Channel_info_end",
"Channel_info_start",
"Channel : Cu",
"Points : 0",
"Range : 0.000000 - 0.000000",
"Step : 0.010000",
"Channel_info_end",
"Channel_info_start",
"Channel : Zn",
"Points : 0",
"Range : 0.000000 - 0.000000",
"Step : 0.010000",
"Channel_info_end",
"Channel_info_start",
"Channel : Sr",
"Points : 0",
"Range : 0.000000 - 0.000000",
"Step : 0.010000",
"Channel_info_end",
"Channel_info_start",
"Channel : Pb",
"Points : 0",
"Range : 0.000000 - 0.000000",
"Step : 0.010000",
"Channel_info_end",
"",
"Qualitative Result",
"--------------------------------------------------------------------------------",
"Element :  P , S , Te, K , Ca, Hg, Rh",
"",
"Peak List",
"--------------------------------------------------------------------------------",
"Channel               Line        keV     Net Int.(cps/uA)",
"--------------------------------------------------------------------------------",
"Na                    P Ka         2.00     0.042",
"                      S Ka         2.28     0.022",
"                      TeLL         3.34     0.085",
"                      K Ka         3.34     0.045",
"                      CaKa         3.76     2.989",
"                      CaKb         4.04     0.418",
"                      TeLb1        4.04     1.453",
"                      TeLb2        4.30     0.351",
"                      TeLg1        4.58     0.169",
"                      TeLg2        4.82     0.125",
"                      HgLa        10.01     0.028",
"                      RhKaC       19.24     0.135",
"                      ----        19.51     0.038",
"                      RhKa        20.08     0.096",
"--------------------------------------------------------------------------------",
"",
"Quantitative Result",
"--------------------------------------------------------------------------------",
"Analyte               Result             Std.Dev. Proc.-Calc. Line Intensity(cps/uA)",
"--------------------------------------------------------------------------------",
"====[No. 1 Layer]====< Layer1               >===============================",
"Layer1                   0.000 ug/cm2    -------- Flux       -------- --------",