Folder: mestrado_ifusp/inputs/edxCalibration/edx_raw/2010-06 (part 4)

File: CaF2 31497.20100610235629.csv
"Sample    : CaF2 31497",
"Operator  : thiago",
"Comment  : cubatao-g-policarbonato",
"Group     : kerr2007ag180cal_lt",
"Date       : 2010-06-10 23:52:16",
"",
"Mesurement Condition",
"------------------------------------------------------------------------------------",
"Instrument : 700HS2   Atmosphere : Vac.   Collimator : 10(mm)   Spin : No",
"------------------------------------------------------------------------------------",
"Analyte               TG kV   uA      FI Acq.(keV)  Anal.(keV)  Time(sec)     DT(%)",
"------------------------------------------------------------------------------------",
"Na                    Rh 50  548-Auto Al  0 - 20    0.8 - 1.2   Live -  179   15",
"",
"<Profile>",
"Channel_info_start",
"Channel : Na",
"Points : 2048",
"Range : 0.000000 - 20.48",
"Step : 0.010000",
"Channel_info_end",
"0",
"0",
"0",
"0",
"1",
"37",
"22",
"24",
"25",
"34",
"21",
"37",
"23",
"23",
"24",
"42",
"22",
"37",
"43",
"32",
"38",
"50",
"47",
"48",
"117",
"159",
"118",
"238",
"430",
"240",
"73",
"47",
"72",
"57",
"39",
"35",
"33",
"32",
"61",
"48",
"57",
"83",
"77",
"116",
"114",
"175",
"187",
"195",
"185",
"242",
"370",
"2966",
"18874",
"26895",
"7576",
"693",
"1100",
"3447",
"2451",
"571",
"65",
"57",
"55",
"86",
"107",
"108",
"101",
"95",
"87",
"85",
"71",
"69",
"65",
"77",
"77",
"87",
"75",
"95",
"84",
"93",
"102",
"84",
"103",
"89",
"106",
"109",
"130",
"130",
"142",
"176",
"177",
"293",
"225",
"198",
"150",
"147",
"188",
"192",
"200",
"213",
"211",
"238",
"215",
"215",
"189",
"197",
"203",
"198",
"141",
"212",
"168",
"183",
"200",
"219",
"268",
"482",
"641",
"550",
"322",
"214",
"207",
"222",
"252",
"289",
"264",
"220",
"178",
"192",
"174",
"174",
"205",
"256",
"316",
"443",
"347",
"287",
"266",
"294",
"265",
"221",
"184",
"168",
"131",
"153",
"175",
"156",
"192",
"201",
"194",
"159",
"144",
"198",
"201",
"214",
"176",
"207",
"209",
"209",
"183",
"178",
"195",
"177",
"177",
"185",
"152",
"167",
"164",
"177",
"174",
"160",
"189",
"172",
"168",
"159",
"161",
"166",
"159",
"166",
"154",
"157",
"136",
"171",
"151",
"130",
"144",
"173",
"136",
"162",
"178",
"128",
"145",
"170",
"173",
"167",
"137",
"126",
"128",
"141",
"132",
"142",
"138",
"127",
"159",
"127",
"166",
"126",
"143",
"142",
"152",
"116",
"132",
"122",
"129",
"113",
"130",
"117",
"106",
"129",
"121",
"121",
"140",
"132",
"141",
"118",
"125",
"118",
"113",
"142",
"110",
"120",
"131",
"136",
"115",
"116",
"117",
"107",
"115",
"89",
"117",
"101",
"110",
"117",
"97",
"102",
"96",
"109",
"94",
"139",
"114",
"103",
"107",
"131",
"117",
"101",
"107",
"115",
"138",
"125",
"121",
"138",
"141",
"135",
"110",
"164",
"186",
"154",
"167",
"227",
"313",
"384",
"442",
"541",
"724",
"782",
"783",
"756",
"696",
"565",
"452",
"363",
"255",
"194",
"171",
"203",
"209",
"281",
"330",
"325",
"293",
"211",
"140",
"108",
"98",
"53858",
"Channel_info_start",
"Channel : Mg",
"Points : 0",
"Range : 0.000000 - 0.000000",
"Step : 0.010000",
"Channel_info_end",
"Channel_info_start",
"Channel : Al",
"Points : 0",
"Range : 0.000000 - 0.000000",
"Step : 0.010000",
"Channel_info_end",
"Channel_info_start",
"Channel : Si",
"Points : 0",
"Range : 0.000000 - 0.000000",
"Step : 0.010000",
"Channel_info_end",
"Channel_info_start",
"Channel : P ",
"Points : 0",
"Range : 0.000000 - 0.000000",
"Step : 0.010000",
"Channel_info_end",
"Channel_info_start",
"Channel : S ",
"Points : 0",
"Range : 0.000000 - 0.000000",
"Step : 0.010000",
"Channel_info_end",
"Channel_info_start",
"Channel : Cl",
"Points : 0",
"Range : 0.000000 - 0.000000",
"Step : 0.010000",
"Channel_info_end",
"Channel_info_start",
"Channel : K ",
"Points : 0",
"Range : 0.000000 - 0.000000",
"Step : 0.010000",
"Channel_info_end",
"Channel_info_start",
"Channel : Ca",
"Points : 0",
"Range : 0.000000 - 0.000000",
"Step : 0.010000",
"Channel_info_end",
"Channel_info_start",
"Channel : Ti",
"Points : 0",
"Range : 0.000000 - 0.000000",
"Step : 0.010000",
"Channel_info_end",
"Channel_info_start",
"Channel : V ",
"Points : 0",
"Range : 0.000000 - 0.000000",
"Step : 0.010000",
"Channel_info_end",
"Channel_info_start",
"Channel : Cr",
"Points : 0",
"Range : 0.000000 - 0.000000",
"Step : 0.010000",
"Channel_info_end",
"Channel_info_start",
"Channel : Mn",
"Points : 0",
"Range : 0.000000 - 0.000000",
"Step : 0.010000",
"Channel_info_end",
"Channel_info_start",
"Channel : Fe",
"Points : 0",
"Range : 0.000000 - 0.000000",
"Step : 0.010000",
"Channel_info_end",
"Channel_info_start",
"Channel : Cu",
"Points : 0",
"Range : 0.000000 - 0.000000",
"Step : 0.010000",
"Channel_info_end",
"Channel_info_start",
"Channel : Zn",
"Points : 0",
"Range : 0.000000 - 0.000000",
"Step : 0.010000",
"Channel_info_end",
"Channel_info_start",
"Channel : Sr",
"Points : 0",
"Range : 0.000000 - 0.000000",
"Step : 0.010000",
"Channel_info_end",
"Channel_info_start",
"Channel : Pb",
"Points : 0",
"Range : 0.000000 - 0.000000",
"Step : 0.010000",
"Channel_info_end",
"",
"Qualitative Result",
"--------------------------------------------------------------------------------",
"Element :  Ta, P , Ca, Ti, Fe, Zn",
"",
"Peak List",
"--------------------------------------------------------------------------------",
"Channel               Line        keV     Net Int.(cps/uA)",
"--------------------------------------------------------------------------------",
"Na                    TaMa         1.72     0.014",
"                      P Ka         1.96     0.047",
"                      CaKa         3.68     3.917",
"                      CaKb         4.02     0.497",
"                      TiKa         4.52     0.011",
"                      FeKa         6.36     0.023",
"                      TaLa         8.12     0.082",
"                      ZnKa         8.64     0.017",
"                      TaLb1        9.33     0.045",
"                      ----        19.19     0.129",
"                      ----        19.48     0.051",
"                      ----        19.94     0.027",
"--------------------------------------------------------------------------------",
"",
"Quantitative Result",
"--------------------------------------------------------------------------------",
"Analyte               Result             Std.Dev. Proc.-Calc. Line Intensity(cps/uA)",
"--------------------------------------------------------------------------------",
"====[No. 1 Layer]====< Layer1               >===============================",
"Layer1                   0.000 ug/cm2    -------- Flux       -------- --------",

File: CdSe 15766.20100611031545.csv
"Sample    : CdSe 15766",
"Operator  : Luís",
"Comment  : cubatao-g-policarbonato",
"Group     : kerr2007ag180cal_lt",
"Date       : 2010-06-11 03:09:43",
"",
"Mesurement Condition",
"------------------------------------------------------------------------------------",
"Instrument : 700HS2   Atmosphere : Vac.   Collimator : 10(mm)   Spin : No",
"------------------------------------------------------------------------------------",
"Analyte               TG kV   uA      FI Acq.(keV)  Anal.(keV)  Time(sec)     DT(%)",
"------------------------------------------------------------------------------------",
"Na                    Rh 50  237-Auto Al  0 - 20    0.8 - 1.2   Live -  179   14",
"",
"<Profile>",
"Channel_info_start",
"Channel : Na",
"Points : 2048",
"Range : 0.000000 - 20.48",
"Step : 0.010000",
"Channel_info_end",
"0",
"0",
"0",
"0",
"1",
"37",
"27",
"32",
"28",
"22",
"27",
"19",
"35",
"20",
"17",
"27",
"33",
"60",
"58",
"351",
"808",
"389",
"96",
"58",
"37",
"37",
"33",
"30",
"68",
"50",
"42",
"37",
"27",
"63",
"37",
"37",
"39",
"45",
"79",
"181",
"179",
"105",
"141",
"364",
"2335",
"3830",
"1334",
"1829",
"1738",
"792",
"477",
"518",
"514",
"693",
"263",
"82",
"174",
"176",
"96",
"36",
"28",
"28",
"37",
"49",
"30",
"46",
"53",
"35",
"39",
"44",
"22",
"39",
"44",
"38",
"37",
"39",
"57",
"71",
"56",
"59",
"50",
"56",
"79",
"87",
"63",
"72",
"88",
"73",
"79",
"99",
"88",
"128",
"122",
"87",
"99",
"99",
"107",
"92",
"102",
"124",
"107",
"95",
"96",
"94",
"83",
"92",
"101",
"110",
"111",
"109",
"101",
"106",
"107",
"125",
"143",
"154",
"115",
"105",
"96",
"86",
"102",
"107",
"136",
"150",
"147",
"97",
"95",
"101",
"101",
"129",
"79",
"105",
"117",
"98",
"127",
"112",
"114",
"113",
"126",
"124",
"105",
"115",
"92",
"104",
"105",
"101",
"80",
"84",
"113",
"110",
"96",
"110",
"99",
"151",
"125",
"133",
"265",
"1053",
"4284",
"10382",
"13552",
"9353",
"3555",
"859",
"209",
"124",
"99",
"92",
"115",
"107",
"94",
"121",
"117",
"99",
"131",
"202",
"575",
"1381",
"1822",
"1726",
"1004",
"422",
"165",
"113",
"84",
"70",
"72",
"76",
"71",
"73",
"68",
"80",
"67",
"60",
"69",
"63",
"67",
"82",
"68",
"73",
"68",
"72",
"76",
"71",
"58",
"59",
"76",
"69",
"74",
"66",
"57",
"71",
"60",
"56",
"49",
"51",
"56",
"68",
"51",
"66",
"57",
"49",
"61",
"61",
"64",
"57",
"53",
"61",
"55",
"68",
"74",
"61",
"65",
"46",
"60",
"67",
"41",
"60",
"50",
"52",
"60",
"49",
"57",
"46",
"46",
"51",
"60",
"54",
"49",
"58",
"44",
"52",
"58",
"41",
"42",
"57",
"67",
"55",
"66",
"68",
"81",
"57",
"50",
"74",
"77",
"73",
"85",
"124",
"140",
"164",
"207",
"258",
"332",
"331",
"334",
"330",
"307",
"248",
"195",
"174",
"121",
"97",
"74",
"91",
"104",
"158",
"196",
"209",
"207",
"131",
"60",
"51",
"55",
"82664",
"Channel_info_start",
"Channel : Mg",
"Points : 0",
"Range : 0.000000 - 0.000000",
"Step : 0.010000",
"Channel_info_end",
"Channel_info_start",
"Channel : Al",
"Points : 0",
"Range : 0.000000 - 0.000000",
"Step : 0.010000",
"Channel_info_end",
"Channel_info_start",
"Channel : Si",
"Points : 0",
"Range : 0.000000 - 0.000000",
"Step : 0.010000",
"Channel_info_end",
"Channel_info_start",
"Channel : P ",
"Points : 0",
"Range : 0.000000 - 0.000000",
"Step : 0.010000",
"Channel_info_end",
"Channel_info_start",
"Channel : S ",
"Points : 0",
"Range : 0.000000 - 0.000000",
"Step : 0.010000",
"Channel_info_end",
"Channel_info_start",
"Channel : Cl",
"Points : 0",
"Range : 0.000000 - 0.000000",
"Step : 0.010000",
"Channel_info_end",
"Channel_info_start",
"Channel : K ",
"Points : 0",
"Range : 0.000000 - 0.000000",
"Step : 0.010000",
"Channel_info_end",
"Channel_info_start",
"Channel : Ca",
"Points : 0",
"Range : 0.000000 - 0.000000",
"Step : 0.010000",
"Channel_info_end",
"Channel_info_start",
"Channel : Ti",
"Points : 0",
"Range : 0.000000 - 0.000000",
"Step : 0.010000",
"Channel_info_end",
"Channel_info_start",
"Channel : V ",
"Points : 0",
"Range : 0.000000 - 0.000000",
"Step : 0.010000",
"Channel_info_end",
"Channel_info_start",
"Channel : Cr",
"Points : 0",
"Range : 0.000000 - 0.000000",
"Step : 0.010000",
"Channel_info_end",
"Channel_info_start",
"Channel : Mn",
"Points : 0",
"Range : 0.000000 - 0.000000",
"Step : 0.010000",
"Channel_info_end",
"Channel_info_start",
"Channel : Fe",
"Points : 0",
"Range : 0.000000 - 0.000000",
"Step : 0.010000",
"Channel_info_end",
"Channel_info_start",
"Channel : Cu",
"Points : 0",
"Range : 0.000000 - 0.000000",
"Step : 0.010000",
"Channel_info_end",
"Channel_info_start",
"Channel : Zn",
"Points : 0",
"Range : 0.000000 - 0.000000",
"Step : 0.010000",
"Channel_info_end",
"Channel_info_start",
"Channel : Sr",
"Points : 0",
"Range : 0.000000 - 0.000000",
"Step : 0.010000",
"Channel_info_end",
"Channel_info_start",
"Channel : Pb",
"Points : 0",
"Range : 0.000000 - 0.000000",
"Step : 0.010000",
"Channel_info_end",
"",
"Qualitative Result",
"--------------------------------------------------------------------------------",
"Element :  Mg, Se, Cd, Ca, Ru",
"",
"Peak List",
"--------------------------------------------------------------------------------",
"Channel               Line        keV     Net Int.(cps/uA)",
"--------------------------------------------------------------------------------",
"Na                    MgKa         1.20     0.006",
"                      SeLa         1.40     0.210",
"                      CdLL         2.76     0.044",
"                      CdLa         3.13     1.199",
"                      CdLb1        3.32     0.611",
"                      CdLb2        3.52     0.123",
"                      CdLg1        3.68     0.060",
"                      CaKa         3.68     0.128",
"                      CdLg2        3.96     0.029",
"                      SeKa        11.20     5.973",
"                      SeKb        12.48     0.883",
"                      RuKa        19.20     0.141",
"                      ----        19.48     0.049",
"                      ----        20.02     0.066",
"--------------------------------------------------------------------------------",
"",
"Quantitative Result",
"--------------------------------------------------------------------------------",
"Analyte               Result             Std.Dev. Proc.-Calc. Line Intensity(cps/uA)",
"--------------------------------------------------------------------------------",
"====[No. 1 Layer]====< Layer1               >===============================",
"Layer1                   2.065 ug/cm2    -------- Flux       -------- --------",
"Mg                       2.065 ug/cm2    -------- ********** -------- --------",

File: Cr 15756.20100610233955.csv
"Sample    : Cr 15756",
"Operator  : thiago",
"Comment  : cubatao-g-policarbonato",
"Group     : kerr2007ag180cal_lt",
"Date       : 2010-06-10 23:33:54",
"",
"Mesurement Condition",
"------------------------------------------------------------------------------------",
"Instrument : 700HS2   Atmosphere : Vac.   Collimator : 10(mm)   Spin : No",
"------------------------------------------------------------------------------------",
"Analyte               TG kV   uA      FI Acq.(keV)  Anal.(keV)  Time(sec)     DT(%)",
"------------------------------------------------------------------------------------",
"Na                    Rh 50  210-Auto Al  0 - 20    0.8 - 1.2   Live -  179   14",
"",
"<Profile>",
"Channel_info_start",
"Channel : Na",
"Points : 2048",
"Range : 0.000000 - 20.48",
"Step : 0.010000",
"Channel_info_end",
"0",
"0",
"0",
"0",
"0",
"10",
"14",
"10",
"11",
"17",
"14",
"15",
"12",
"12",
"11",
"12",
"5",
"15",
"14",
"14",
"19",
"14",
"14",
"13",
"18",
"30",
"18",
"13",
"44",
"41",
"22",
"18",
"26",
"22",
"17",
"12",
"13",
"17",
"21",
"18",
"16",
"22",
"22",
"16",
"19",
"12",
"18",
"30",
"28",
"22",
"30",
"146",
"500",
"642",
"167",
"51",
"54",
"83",
"62",
"54",
"66",
"57",
"40",
"70",
"79",
"66",
"93",
"78",
"79",
"69",
"76",
"110",
"121",
"161",
"226",
"1411",
"12057",
"32030",
"22785",
"5091",
"389",
"141",
"180",
"744",
"2768",
"4261",
"1972",
"395",
"56",
"64",
"65",
"63",
"54",
"78",
"77",
"74",
"86",
"71",
"64",
"65",
"74",
"67",
"52",
"75",
"64",
"74",
"61",
"74",
"62",
"77",
"66",
"64",
"82",
"89",
"86",
"95",
"69",
"73",
"68",
"74",
"68",
"106",
"97",
"116",
"109",
"93",
"73",
"77",
"75",
"70",
"56",
"69",
"83",
"66",
"73",
"86",
"65",
"71",
"65",
"73",
"74",
"68",
"76",
"84",
"74",
"71",
"73",
"62",
"68",
"80",
"74",
"61",
"49",
"83",
"95",
"126",
"64",
"93",
"52",
"64",
"57",
"89",
"78",
"71",
"66",
"64",
"65",
"71",
"57",
"55",
"57",
"54",
"60",
"56",
"60",
"58",
"62",
"70",
"62",
"62",
"69",
"67",
"64",
"54",
"57",
"60",
"50",
"71",
"69",
"65",
"75",
"69",
"61",
"57",
"67",
"60",
"54",
"70",
"51",
"67",
"58",
"64",
"48",
"57",
"55",
"49",
"53",
"56",
"51",
"51",
"54",
"45",
"44",
"41",
"54",
"55",
"57",
"45",
"54",
"50",
"38",
"51",
"48",
"54",
"45",
"51",
"44",
"54",
"50",
"34",
"37",
"47",
"55",
"38",
"49",
"55",
"48",
"44",
"36",
"58",
"44",
"49",
"41",
"48",
"40",
"40",
"38",
"42",
"44",
"41",
"43",
"43",
"55",
"49",
"47",
"48",
"43",
"54",
"49",
"42",
"56",
"52",
"63",
"43",
"57",
"54",
"65",
"104",
"107",
"143",
"174",
"223",
"253",
"287",
"336",
"339",
"264",
"221",
"142",
"136",
"131",
"79",
"66",
"84",
"81",
"114",
"169",
"151",
"116",
"74",
"65",
"41",
"39",
"20785",
"Channel_info_start",
"Channel : Mg",
"Points : 0",
"Range : 0.000000 - 0.000000",
"Step : 0.010000",
"Channel_info_end",
"Channel_info_start",
"Channel : Al",
"Points : 0",
"Range : 0.000000 - 0.000000",
"Step : 0.010000",
"Channel_info_end",
"Channel_info_start",
"Channel : Si",
"Points : 0",
"Range : 0.000000 - 0.000000",
"Step : 0.010000",
"Channel_info_end",
"Channel_info_start",
"Channel : P ",
"Points : 0",
"Range : 0.000000 - 0.000000",
"Step : 0.010000",
"Channel_info_end",
"Channel_info_start",
"Channel : S ",
"Points : 0",
"Range : 0.000000 - 0.000000",
"Step : 0.010000",
"Channel_info_end",
"Channel_info_start",
"Channel : Cl",
"Points : 0",
"Range : 0.000000 - 0.000000",
"Step : 0.010000",
"Channel_info_end",
"Channel_info_start",
"Channel : K ",
"Points : 0",
"Range : 0.000000 - 0.000000",
"Step : 0.010000",
"Channel_info_end",
"Channel_info_start",
"Channel : Ca",
"Points : 0",
"Range : 0.000000 - 0.000000",
"Step : 0.010000",
"Channel_info_end",
"Channel_info_start",
"Channel : Ti",
"Points : 0",
"Range : 0.000000 - 0.000000",
"Step : 0.010000",
"Channel_info_end",
"Channel_info_start",
"Channel : V ",
"Points : 0",
"Range : 0.000000 - 0.000000",
"Step : 0.010000",
"Channel_info_end",
"Channel_info_start",
"Channel : Cr",
"Points : 0",
"Range : 0.000000 - 0.000000",
"Step : 0.010000",
"Channel_info_end",
"Channel_info_start",
"Channel : Mn",
"Points : 0",
"Range : 0.000000 - 0.000000",
"Step : 0.010000",
"Channel_info_end",
"Channel_info_start",
"Channel : Fe",
"Points : 0",
"Range : 0.000000 - 0.000000",
"Step : 0.010000",
"Channel_info_end",
"Channel_info_start",
"Channel : Cu",
"Points : 0",
"Range : 0.000000 - 0.000000",
"Step : 0.010000",
"Channel_info_end",
"Channel_info_start",
"Channel : Zn",
"Points : 0",
"Range : 0.000000 - 0.000000",
"Step : 0.010000",
"Channel_info_end",
"Channel_info_start",
"Channel : Sr",
"Points : 0",
"Range : 0.000000 - 0.000000",
"Step : 0.010000",
"Channel_info_end",
"Channel_info_start",
"Channel : Pb",
"Points : 0",
"Range : 0.000000 - 0.000000",
"Step : 0.010000",
"Channel_info_end",
"",
"Qualitative Result",
"--------------------------------------------------------------------------------",
"Element :  P , Ca, Cr, Ru",
"",
"Peak List",
"--------------------------------------------------------------------------------",
"Channel               Line        keV     Net Int.(cps/uA)",
"--------------------------------------------------------------------------------",
"Na                    P Ka         2.01     0.016",
"                      CaKa         3.68     0.244",
"                      CaKb         4.03     0.017",
"                      CrKa         5.40    13.510",
"                      CrKb         5.94     1.717",
"                      RuKa        19.21     0.152",
"                      ----        20.02     0.065",
"--------------------------------------------------------------------------------",
"",
"Quantitative Result",
"--------------------------------------------------------------------------------",
"Analyte               Result             Std.Dev. Proc.-Calc. Line Intensity(cps/uA)",
"--------------------------------------------------------------------------------",
"====[No. 1 Layer]====< Layer1               >===============================",
"Layer1                   0.000 ug/cm2    -------- Flux       -------- --------",

File: CsBr 15760.20100525225714.csv
"Sample    : CsBr 15760",
"Operator  : luisf",
"Comment  : cubatao-g-policarbonato",
"Group     : kerr2007ag180cal_lt",
"Date       : 2010-05-25 22:53:11",
"",
"Mesurement Condition",
"------------------------------------------------------------------------------------",
"Instrument : 700HS2   Atmosphere : Vac.   Collimator : 10(mm)   Spin : No",
"------------------------------------------------------------------------------------",
"Analyte               TG kV   uA      FI Acq.(keV)  Anal.(keV)  Time(sec)     DT(%)",
"------------------------------------------------------------------------------------",
"Na                    Rh 50  237-Auto Al  0 - 20    0.8 - 1.2   Live -  180   14",
"",
"<Profile>",
"Channel_info_start",
"Channel : Na",
"Points : 2048",
"Range : 0.000000 - 20.48",
"Step : 0.010000",
"Channel_info_end",
"0",
"0",
"0",
"0",
"1",
"33",
"27",
"38",
"20",
"23",
"31",
"21",
"24",
"30",
"35",
"14",
"23",
"25",
"39",
"62",
"114",
"566",
"463",
"153",
"49",
"39",
"24",
"27",
"48",
"52",
"36",
"25",
"24",
"47",
"28",
"40",
"73",
"56",
"28",
"36",
"42",
"63",
"59",
"42",
"20",
"29",
"29",
"29",
"33",
"39",
"47",
"113",
"395",
"660",
"426",
"272",
"114",
"150",
"171",
"442",
"2465",
"6844",
"4400",
"787",
"359",
"2068",
"4402",
"3309",
"1330",
"520",
"1015",
"968",
"372",
"128",
"212",
"541",
"533",
"184",
"211",
"388",
"283",
"137",
"70",
"73",
"68",
"69",
"60",
"69",
"78",
"106",
"100",
"102",
"107",
"99",
"90",
"109",
"111",
"113",
"112",
"127",
"95",
"81",
"106",
"113",
"91",
"96",
"77",
"124",
"101",
"105",
"78",
"98",
"100",
"98",
"127",
"131",
"117",
"116",
"104",
"93",
"130",
"118",
"150",
"171",
"118",
"124",
"89",
"132",
"115",
"91",
"107",
"124",
"100",
"126",
"105",
"112",
"103",
"122",
"103",
"89",
"80",
"108",
"96",
"96",
"109",
"105",
"125",
"119",
"105",
"101",
"106",
"108",
"100",
"120",
"103",
"86",
"122",
"94",
"113",
"111",
"115",
"102",
"90",
"112",
"115",
"143",
"257",
"1121",
"3982",
"8864",
"11049",
"8870",
"3450",
"916",
"201",
"118",
"109",
"94",
"81",
"98",
"112",
"88",
"87",
"109",
"120",
"127",
"175",
"365",
"863",
"1574",
"1762",
"1265",
"675",
"292",
"150",
"106",
"79",
"83",
"76",
"87",
"77",
"63",
"68",
"79",
"75",
"61",
"81",
"56",
"73",
"63",
"54",
"63",
"64",
"67",
"89",
"85",
"74",
"66",
"69",
"61",
"76",
"76",
"72",
"66",
"60",
"63",
"77",
"69",
"63",
"69",
"62",
"63",
"74",
"80",
"67",
"61",
"61",
"63",
"60",
"68",
"57",
"52",
"47",
"61",
"72",
"61",
"59",
"78",
"70",
"65",
"60",
"55",
"62",
"56",
"59",
"54",
"64",
"55",
"50",
"67",
"60",
"79",
"78",
"86",
"66",
"80",
"89",
"82",
"126",
"145",
"205",
"258",
"351",
"383",
"365",
"370",
"326",
"257",
"197",
"144",
"131",
"89",
"89",
"91",
"131",
"166",
"198",
"232",
"202",
"128",
"83",
"62",
"59",
"37718",
"Channel_info_start",
"Channel : Mg",
"Points : 0",
"Range : 0.000000 - 0.000000",
"Step : 0.010000",
"Channel_info_end",
"Channel_info_start",
"Channel : Al",
"Points : 0",
"Range : 0.000000 - 0.000000",
"Step : 0.010000",
"Channel_info_end",
"Channel_info_start",
"Channel : Si",
"Points : 0",
"Range : 0.000000 - 0.000000",
"Step : 0.010000",
"Channel_info_end",
"Channel_info_start",
"Channel : P ",
"Points : 0",
"Range : 0.000000 - 0.000000",
"Step : 0.010000",
"Channel_info_end",
"Channel_info_start",
"Channel : S ",
"Points : 0",
"Range : 0.000000 - 0.000000",
"Step : 0.010000",
"Channel_info_end",
"Channel_info_start",
"Channel : Cl",
"Points : 0",
"Range : 0.000000 - 0.000000",
"Step : 0.010000",
"Channel_info_end",
"Channel_info_start",
"Channel : K ",
"Points : 0",
"Range : 0.000000 - 0.000000",
"Step : 0.010000",
"Channel_info_end",
"Channel_info_start",
"Channel : Ca",
"Points : 0",
"Range : 0.000000 - 0.000000",
"Step : 0.010000",
"Channel_info_end",
"Channel_info_start",
"Channel : Ti",
"Points : 0",
"Range : 0.000000 - 0.000000",
"Step : 0.010000",
"Channel_info_end",
"Channel_info_start",
"Channel : V ",
"Points : 0",
"Range : 0.000000 - 0.000000",
"Step : 0.010000",
"Channel_info_end",
"Channel_info_start",
"Channel : Cr",
"Points : 0",
"Range : 0.000000 - 0.000000",
"Step : 0.010000",
"Channel_info_end",
"Channel_info_start",
"Channel : Mn",
"Points : 0",
"Range : 0.000000 - 0.000000",
"Step : 0.010000",
"Channel_info_end",
"Channel_info_start",
"Channel : Fe",
"Points : 0",
"Range : 0.000000 - 0.000000",
"Step : 0.010000",
"Channel_info_end",
"Channel_info_start",
"Channel : Cu",
"Points : 0",
"Range : 0.000000 - 0.000000",
"Step : 0.010000",
"Channel_info_end",
"Channel_info_start",
"Channel : Zn",
"Points : 0",
"Range : 0.000000 - 0.000000",
"Step : 0.010000",
"Channel_info_end",
"Channel_info_start",
"Channel : Sr",
"Points : 0",
"Range : 0.000000 - 0.000000",
"Step : 0.010000",
"Channel_info_end",
"Channel_info_start",
"Channel : Pb",
"Points : 0",
"Range : 0.000000 - 0.000000",
"Step : 0.010000",
"Channel_info_end",
"",
"Qualitative Result",
"--------------------------------------------------------------------------------",
"Element :  Br, P , Cs, Ce",
"",
"Peak List",
"--------------------------------------------------------------------------------",
"Channel               Line        keV     Net Int.(cps/uA)",
"--------------------------------------------------------------------------------",
"Na                    BrLa         1.50     0.155",
"                      P Ka         2.00     0.014",
"                      CsLaESC      2.52     0.017",
"                      ----         3.70     0.183",
"                      CsLa         4.28     2.329",
"                      CsLb1        4.63     1.487",
"                      CsLb2        4.94     0.355",
"                      CsLg1        5.28     0.140",
"                      CeLb1        5.28     0.036",
"                      CsLg2        5.54     0.099",
"                      BrKa        11.88     5.174",
"                      BrKb        13.29     0.770",
"                      ----        19.24     0.138",
"                      ----        19.97     0.062",
"--------------------------------------------------------------------------------",
"",
"Quantitative Result",
"--------------------------------------------------------------------------------",
"Analyte               Result             Std.Dev. Proc.-Calc. Line Intensity(cps/uA)",
"--------------------------------------------------------------------------------",
"====[No. 1 Layer]====< Layer1               >===============================",
"Layer1                   0.000 ug/cm2    -------- Flux       -------- --------",