Folder: mestrado_ifusp/inputs/edxCalibration/edx_raw/2010-06 (part 17)

File: YbF9 31518.20100626153937.csv
"Sample    : YbF9 31518",
"Operator  : luis",
"Comment  : cubatao-g-policarbonato",
"Group     : kerr2007ag180cal_lt",
"Date       : 2010-06-26 15:35:34",
"",
"Mesurement Condition",
"------------------------------------------------------------------------------------",
"Instrument : 700HS2   Atmosphere : Vac.   Collimator : 10(mm)   Spin : No",
"------------------------------------------------------------------------------------",
"Analyte               TG kV   uA      FI Acq.(keV)  Anal.(keV)  Time(sec)     DT(%)",
"------------------------------------------------------------------------------------",
"Na                    Rh 50  237-Auto Al  0 - 20    0.8 - 1.2   Live -  180   14",
"",
"<Profile>",
"Channel_info_start",
"Channel : Na",
"Points : 2048",
"Range : 0.000000 - 20.48",
"Step : 0.010000",
"Channel_info_end",
"0",
"0",
"0",
"0",
"3",
"21",
"18",
"16",
"15",
"31",
"13",
"17",
"15",
"11",
"12",
"25",
"61",
"157",
"94",
"45",
"69",
"738",
"2322",
"1438",
"250",
"292",
"161",
"59",
"103",
"155",
"50",
"27",
"22",
"15",
"21",
"21",
"21",
"15",
"28",
"22",
"26",
"23",
"15",
"16",
"12",
"28",
"15",
"18",
"12",
"26",
"23",
"107",
"591",
"824",
"270",
"58",
"60",
"138",
"123",
"51",
"27",
"30",
"34",
"48",
"41",
"53",
"53",
"68",
"64",
"54",
"42",
"52",
"53",
"58",
"59",
"53",
"51",
"54",
"60",
"69",
"96",
"124",
"99",
"88",
"72",
"90",
"96",
"97",
"92",
"123",
"123",
"166",
"320",
"647",
"617",
"373",
"168",
"130",
"145",
"175",
"135",
"165",
"203",
"516",
"2649",
"9102",
"12902",
"7588",
"1982",
"470",
"212",
"154",
"129",
"156",
"193",
"352",
"547",
"781",
"2077",
"5499",
"7433",
"5689",
"2716",
"1481",
"1737",
"2299",
"1622",
"689",
"304",
"178",
"123",
"154",
"212",
"266",
"249",
"245",
"223",
"286",
"542",
"1055",
"1197",
"756",
"329",
"393",
"525",
"531",
"341",
"191",
"151",
"166",
"149",
"138",
"105",
"109",
"90",
"117",
"124",
"110",
"81",
"94",
"102",
"86",
"123",
"106",
"93",
"92",
"100",
"84",
"84",
"106",
"109",
"98",
"89",
"84",
"94",
"91",
"73",
"67",
"91",
"88",
"92",
"94",
"99",
"91",
"89",
"112",
"96",
"84",
"80",
"91",
"84",
"77",
"79",
"91",
"92",
"89",
"78",
"80",
"69",
"76",
"75",
"69",
"84",
"83",
"63",
"72",
"72",
"76",
"84",
"65",
"83",
"80",
"75",
"71",
"73",
"83",
"72",
"55",
"69",
"67",
"71",
"64",
"71",
"71",
"66",
"79",
"69",
"62",
"78",
"65",
"69",
"62",
"62",
"56",
"58",
"67",
"72",
"61",
"59",
"76",
"71",
"74",
"62",
"61",
"60",
"60",
"62",
"62",
"48",
"55",
"46",
"56",
"54",
"78",
"66",
"64",
"63",
"59",
"45",
"55",
"65",
"62",
"66",
"65",
"75",
"68",
"94",
"98",
"121",
"151",
"177",
"257",
"315",
"319",
"333",
"365",
"360",
"286",
"219",
"185",
"160",
"107",
"88",
"89",
"129",
"170",
"233",
"269",
"250",
"168",
"107",
"62",
"46",
"26836",
"Channel_info_start",
"Channel : Mg",
"Points : 0",
"Range : 0.000000 - 0.000000",
"Step : 0.010000",
"Channel_info_end",
"Channel_info_start",
"Channel : Al",
"Points : 0",
"Range : 0.000000 - 0.000000",
"Step : 0.010000",
"Channel_info_end",
"Channel_info_start",
"Channel : Si",
"Points : 0",
"Range : 0.000000 - 0.000000",
"Step : 0.010000",
"Channel_info_end",
"Channel_info_start",
"Channel : P ",
"Points : 0",
"Range : 0.000000 - 0.000000",
"Step : 0.010000",
"Channel_info_end",
"Channel_info_start",
"Channel : S ",
"Points : 0",
"Range : 0.000000 - 0.000000",
"Step : 0.010000",
"Channel_info_end",
"Channel_info_start",
"Channel : Cl",
"Points : 0",
"Range : 0.000000 - 0.000000",
"Step : 0.010000",
"Channel_info_end",
"Channel_info_start",
"Channel : K ",
"Points : 0",
"Range : 0.000000 - 0.000000",
"Step : 0.010000",
"Channel_info_end",
"Channel_info_start",
"Channel : Ca",
"Points : 0",
"Range : 0.000000 - 0.000000",
"Step : 0.010000",
"Channel_info_end",
"Channel_info_start",
"Channel : Ti",
"Points : 0",
"Range : 0.000000 - 0.000000",
"Step : 0.010000",
"Channel_info_end",
"Channel_info_start",
"Channel : V ",
"Points : 0",
"Range : 0.000000 - 0.000000",
"Step : 0.010000",
"Channel_info_end",
"Channel_info_start",
"Channel : Cr",
"Points : 0",
"Range : 0.000000 - 0.000000",
"Step : 0.010000",
"Channel_info_end",
"Channel_info_start",
"Channel : Mn",
"Points : 0",
"Range : 0.000000 - 0.000000",
"Step : 0.010000",
"Channel_info_end",
"Channel_info_start",
"Channel : Fe",
"Points : 0",
"Range : 0.000000 - 0.000000",
"Step : 0.010000",
"Channel_info_end",
"Channel_info_start",
"Channel : Cu",
"Points : 0",
"Range : 0.000000 - 0.000000",
"Step : 0.010000",
"Channel_info_end",
"Channel_info_start",
"Channel : Zn",
"Points : 0",
"Range : 0.000000 - 0.000000",
"Step : 0.010000",
"Channel_info_end",
"Channel_info_start",
"Channel : Sr",
"Points : 0",
"Range : 0.000000 - 0.000000",
"Step : 0.010000",
"Channel_info_end",
"Channel_info_start",
"Channel : Pb",
"Points : 0",
"Range : 0.000000 - 0.000000",
"Step : 0.010000",
"Channel_info_end",
"",
"Qualitative Result",
"--------------------------------------------------------------------------------",
"Element :  Mg, Yb, Ta, P , Ca, Dy, Ni, Cu, Ru",
"",
"Peak List",
"--------------------------------------------------------------------------------",
"Channel               Line        keV     Net Int.(cps/uA)",
"--------------------------------------------------------------------------------",
"Na                    MgKa         1.20     0.037",
"                      YbMa         1.56     0.636",
"                      TaMa         1.76     0.059",
"                      P Ka         2.00     0.037",
"                      CaKa         3.69     0.279",
"                      CaKb         4.03     0.033",
"                      YbLL         6.55     0.154",
"                      DyLa         6.55     0.064",
"                      NiKa         7.41     5.118",
"                      TaLa         8.10     0.071",
"                      YbLb4        8.27     0.716",
"                      YbLb1        8.40     2.916",
"                      YbLb2        8.76     0.829",
"                      CuKb         8.91     0.011",
"                      TaLb1        9.33     0.050",
"                      YbLg1        9.76     0.472",
"                      YbLg2       10.12     0.162",
"                      RuKa        19.20     0.141",
"                      ----        19.52     0.041",
"                      ----        19.97     0.074",
"--------------------------------------------------------------------------------",
"",
"Quantitative Result",
"--------------------------------------------------------------------------------",
"Analyte               Result             Std.Dev. Proc.-Calc. Line Intensity(cps/uA)",
"--------------------------------------------------------------------------------",
"====[No. 1 Layer]====< Layer1               >===============================",
"Layer1                  12.180 ug/cm2    -------- Flux       -------- --------",
"Mg                      12.180 ug/cm2    -------- ********** -------- --------",

File: YF3 15762.20100525231721.csv
"Sample    : YF3 15762",
"Operator  : luisf",
"Comment  : cubatao-g-policarbonato",
"Group     : kerr2007ag180cal_lt",
"Date       : 2010-05-25 23:13:20",
"",
"Mesurement Condition",
"------------------------------------------------------------------------------------",
"Instrument : 700HS2   Atmosphere : Vac.   Collimator : 10(mm)   Spin : No",
"------------------------------------------------------------------------------------",
"Analyte               TG kV   uA      FI Acq.(keV)  Anal.(keV)  Time(sec)     DT(%)",
"------------------------------------------------------------------------------------",
"Na                    Rh 50  237-Auto Al  0 - 20    0.8 - 1.2   Live -  179   14",
"",
"<Profile>",
"Channel_info_start",
"Channel : Na",
"Points : 2048",
"Range : 0.000000 - 20.48",
"Step : 0.010000",
"Channel_info_end",
"0",
"0",
"0",
"0",
"1",
"29",
"37",
"40",
"38",
"40",
"36",
"52",
"39",
"36",
"27",
"33",
"25",
"27",
"24",
"26",
"24",
"28",
"36",
"81",
"169",
"242",
"327",
"1476",
"1903",
"1076",
"281",
"84",
"30",
"32",
"32",
"16",
"15",
"16",
"14",
"22",
"18",
"20",
"16",
"22",
"16",
"17",
"14",
"13",
"12",
"9",
"26",
"88",
"378",
"513",
"165",
"65",
"50",
"107",
"77",
"43",
"35",
"29",
"28",
"46",
"54",
"55",
"58",
"49",
"30",
"47",
"45",
"36",
"37",
"44",
"25",
"46",
"63",
"54",
"41",
"59",
"36",
"49",
"47",
"63",
"65",
"71",
"63",
"90",
"74",
"79",
"84",
"90",
"90",
"73",
"87",
"108",
"99",
"92",
"99",
"100",
"101",
"102",
"83",
"91",
"93",
"91",
"91",
"106",
"92",
"109",
"80",
"123",
"99",
"112",
"129",
"133",
"132",
"110",
"104",
"90",
"108",
"99",
"141",
"150",
"107",
"102",
"95",
"88",
"107",
"110",
"100",
"109",
"95",
"95",
"91",
"93",
"93",
"96",
"87",
"120",
"80",
"111",
"69",
"75",
"96",
"86",
"87",
"83",
"83",
"78",
"90",
"82",
"73",
"90",
"96",
"92",
"82",
"70",
"82",
"97",
"111",
"88",
"60",
"88",
"63",
"98",
"65",
"84",
"90",
"79",
"71",
"99",
"73",
"94",
"84",
"78",
"68",
"75",
"73",
"75",
"88",
"75",
"80",
"67",
"78",
"70",
"95",
"86",
"75",
"69",
"72",
"77",
"80",
"82",
"56",
"60",
"77",
"79",
"77",
"82",
"77",
"80",
"97",
"90",
"84",
"84",
"109",
"122",
"181",
"503",
"1935",
"6304",
"11467",
"14453",
"12001",
"7306",
"2885",
"670",
"157",
"97",
"73",
"80",
"72",
"83",
"59",
"70",
"83",
"87",
"63",
"93",
"73",
"79",
"77",
"97",
"125",
"233",
"600",
"1324",
"1976",
"2475",
"1862",
"1075",
"659",
"473",
"326",
"190",
"79",
"68",
"59",
"54",
"60",
"42",
"55",
"46",
"39",
"52",
"56",
"54",
"49",
"51",
"52",
"60",
"58",
"63",
"74",
"74",
"86",
"95",
"112",
"161",
"192",
"233",
"333",
"354",
"332",
"342",
"287",
"252",
"188",
"163",
"107",
"102",
"79",
"82",
"111",
"119",
"139",
"167",
"141",
"110",
"69",
"50",
"43",
"25631",
"Channel_info_start",
"Channel : Mg",
"Points : 0",
"Range : 0.000000 - 0.000000",
"Step : 0.010000",
"Channel_info_end",
"Channel_info_start",
"Channel : Al",
"Points : 0",
"Range : 0.000000 - 0.000000",
"Step : 0.010000",
"Channel_info_end",
"Channel_info_start",
"Channel : Si",
"Points : 0",
"Range : 0.000000 - 0.000000",
"Step : 0.010000",
"Channel_info_end",
"Channel_info_start",
"Channel : P ",
"Points : 0",
"Range : 0.000000 - 0.000000",
"Step : 0.010000",
"Channel_info_end",
"Channel_info_start",
"Channel : S ",
"Points : 0",
"Range : 0.000000 - 0.000000",
"Step : 0.010000",
"Channel_info_end",
"Channel_info_start",
"Channel : Cl",
"Points : 0",
"Range : 0.000000 - 0.000000",
"Step : 0.010000",
"Channel_info_end",
"Channel_info_start",
"Channel : K ",
"Points : 0",
"Range : 0.000000 - 0.000000",
"Step : 0.010000",
"Channel_info_end",
"Channel_info_start",
"Channel : Ca",
"Points : 0",
"Range : 0.000000 - 0.000000",
"Step : 0.010000",
"Channel_info_end",
"Channel_info_start",
"Channel : Ti",
"Points : 0",
"Range : 0.000000 - 0.000000",
"Step : 0.010000",
"Channel_info_end",
"Channel_info_start",
"Channel : V ",
"Points : 0",
"Range : 0.000000 - 0.000000",
"Step : 0.010000",
"Channel_info_end",
"Channel_info_start",
"Channel : Cr",
"Points : 0",
"Range : 0.000000 - 0.000000",
"Step : 0.010000",
"Channel_info_end",
"Channel_info_start",
"Channel : Mn",
"Points : 0",
"Range : 0.000000 - 0.000000",
"Step : 0.010000",
"Channel_info_end",
"Channel_info_start",
"Channel : Fe",
"Points : 0",
"Range : 0.000000 - 0.000000",
"Step : 0.010000",
"Channel_info_end",
"Channel_info_start",
"Channel : Cu",
"Points : 0",
"Range : 0.000000 - 0.000000",
"Step : 0.010000",
"Channel_info_end",
"Channel_info_start",
"Channel : Zn",
"Points : 0",
"Range : 0.000000 - 0.000000",
"Step : 0.010000",
"Channel_info_end",
"Channel_info_start",
"Channel : Sr",
"Points : 0",
"Range : 0.000000 - 0.000000",
"Step : 0.010000",
"Channel_info_end",
"Channel_info_start",
"Channel : Pb",
"Points : 0",
"Range : 0.000000 - 0.000000",
"Step : 0.010000",
"Channel_info_end",
"",
"Qualitative Result",
"--------------------------------------------------------------------------------",
"Element :  Si, Y , Ca, Rh",
"",
"Peak List",
"--------------------------------------------------------------------------------",
"Channel               Line        keV     Net Int.(cps/uA)",
"--------------------------------------------------------------------------------",
"Na                    SiKa         1.71     0.047",
"                      Y La         1.94     0.542",
"                      CaKa         3.69     0.166",
"                      CaKb         4.00     0.024",
"                      Y Ka        14.92     7.140",
"                      Y Kb        16.70     1.152",
"                      ----        17.09     0.102",
"                      RhKaC       19.19     0.127",
"                      ----        19.42     0.066",
"                      RhKa        20.05     0.062",
"--------------------------------------------------------------------------------",
"",
"Quantitative Result",
"--------------------------------------------------------------------------------",
"Analyte               Result             Std.Dev. Proc.-Calc. Line Intensity(cps/uA)",
"--------------------------------------------------------------------------------",
"====[No. 1 Layer]====< Layer1               >===============================",
"Layer1                   0.000 ug/cm2    -------- Flux       -------- --------",

File: YF3 15762.20100611021102.csv
"Sample    : YF3 15762",
"Operator  : Luís",
"Comment  : cubatao-g-policarbonato",
"Group     : kerr2007ag180cal_lt",
"Date       : 2010-06-11 02:07:00",
"",
"Mesurement Condition",
"------------------------------------------------------------------------------------",
"Instrument : 700HS2   Atmosphere : Vac.   Collimator : 10(mm)   Spin : No",
"------------------------------------------------------------------------------------",
"Analyte               TG kV   uA      FI Acq.(keV)  Anal.(keV)  Time(sec)     DT(%)",
"------------------------------------------------------------------------------------",
"Na                    Rh 50  237-Auto Al  0 - 20    0.8 - 1.2   Live -  179   14",
"",
"<Profile>",
"Channel_info_start",
"Channel : Na",
"Points : 2048",
"Range : 0.000000 - 20.48",
"Step : 0.010000",
"Channel_info_end",
"0",
"0",
"0",
"0",
"0",
"29",
"30",
"40",
"27",
"46",
"30",
"35",
"54",
"26",
"32",
"24",
"22",
"31",
"32",
"24",
"16",
"40",
"52",
"80",
"204",
"226",
"304",
"1460",
"1873",
"1059",
"303",
"89",
"37",
"35",
"19",
"20",
"19",
"13",
"14",
"25",
"23",
"16",
"16",
"16",
"10",
"11",
"17",
"12",
"11",
"16",
"24",
"92",
"399",
"514",
"150",
"58",
"46",
"80",
"58",
"39",
"29",
"33",
"39",
"44",
"45",
"56",
"60",
"37",
"46",
"40",
"45",
"37",
"54",
"53",
"39",
"43",
"46",
"45",
"53",
"65",
"38",
"41",
"53",
"56",
"71",
"54",
"69",
"87",
"77",
"73",
"95",
"94",
"82",
"79",
"86",
"74",
"96",
"87",
"92",
"118",
"72",
"87",
"109",
"92",
"79",
"97",
"86",
"100",
"79",
"75",
"83",
"89",
"113",
"100",
"133",
"128",
"133",
"108",
"87",
"97",
"97",
"94",
"109",
"146",
"130",
"106",
"79",
"105",
"107",
"100",
"102",
"102",
"105",
"116",
"104",
"88",
"75",
"106",
"101",
"84",
"72",
"94",
"74",
"93",
"67",
"75",
"77",
"84",
"97",
"87",
"94",
"85",
"87",
"92",
"88",
"84",
"84",
"96",
"79",
"96",
"82",
"91",
"92",
"72",
"80",
"91",
"81",
"92",
"79",
"72",
"65",
"82",
"89",
"86",
"70",
"81",
"73",
"88",
"71",
"79",
"78",
"94",
"70",
"81",
"74",
"99",
"81",
"91",
"71",
"83",
"70",
"81",
"64",
"73",
"80",
"73",
"70",
"85",
"72",
"79",
"82",
"93",
"78",
"98",
"77",
"107",
"107",
"110",
"197",
"665",
"2249",
"6483",
"11905",
"14619",
"11977",
"6808",
"2462",
"606",
"147",
"113",
"78",
"63",
"61",
"75",
"66",
"78",
"60",
"70",
"65",
"60",
"74",
"79",
"81",
"97",
"93",
"215",
"619",
"1365",
"2093",
"2462",
"1772",
"1075",
"689",
"424",
"316",
"179",
"92",
"70",
"61",
"50",
"54",
"49",
"58",
"37",
"36",
"54",
"61",
"42",
"46",
"56",
"60",
"47",
"60",
"73",
"67",
"74",
"83",
"81",
"130",
"142",
"215",
"247",
"350",
"334",
"312",
"354",
"293",
"230",
"197",
"177",
"106",
"78",
"73",
"60",
"96",
"137",
"156",
"160",
"144",
"93",
"47",
"45",
"43",
"25652",
"Channel_info_start",
"Channel : Mg",
"Points : 0",
"Range : 0.000000 - 0.000000",
"Step : 0.010000",
"Channel_info_end",
"Channel_info_start",
"Channel : Al",
"Points : 0",
"Range : 0.000000 - 0.000000",
"Step : 0.010000",
"Channel_info_end",
"Channel_info_start",
"Channel : Si",
"Points : 0",
"Range : 0.000000 - 0.000000",
"Step : 0.010000",
"Channel_info_end",
"Channel_info_start",
"Channel : P ",
"Points : 0",
"Range : 0.000000 - 0.000000",
"Step : 0.010000",
"Channel_info_end",
"Channel_info_start",
"Channel : S ",
"Points : 0",
"Range : 0.000000 - 0.000000",
"Step : 0.010000",
"Channel_info_end",
"Channel_info_start",
"Channel : Cl",
"Points : 0",
"Range : 0.000000 - 0.000000",
"Step : 0.010000",
"Channel_info_end",
"Channel_info_start",
"Channel : K ",
"Points : 0",
"Range : 0.000000 - 0.000000",
"Step : 0.010000",
"Channel_info_end",
"Channel_info_start",
"Channel : Ca",
"Points : 0",
"Range : 0.000000 - 0.000000",
"Step : 0.010000",
"Channel_info_end",
"Channel_info_start",
"Channel : Ti",
"Points : 0",
"Range : 0.000000 - 0.000000",
"Step : 0.010000",
"Channel_info_end",
"Channel_info_start",
"Channel : V ",
"Points : 0",
"Range : 0.000000 - 0.000000",
"Step : 0.010000",
"Channel_info_end",
"Channel_info_start",
"Channel : Cr",
"Points : 0",
"Range : 0.000000 - 0.000000",
"Step : 0.010000",
"Channel_info_end",
"Channel_info_start",
"Channel : Mn",
"Points : 0",
"Range : 0.000000 - 0.000000",
"Step : 0.010000",
"Channel_info_end",
"Channel_info_start",
"Channel : Fe",
"Points : 0",
"Range : 0.000000 - 0.000000",
"Step : 0.010000",
"Channel_info_end",
"Channel_info_start",
"Channel : Cu",
"Points : 0",
"Range : 0.000000 - 0.000000",
"Step : 0.010000",
"Channel_info_end",
"Channel_info_start",
"Channel : Zn",
"Points : 0",
"Range : 0.000000 - 0.000000",
"Step : 0.010000",
"Channel_info_end",
"Channel_info_start",
"Channel : Sr",
"Points : 0",
"Range : 0.000000 - 0.000000",
"Step : 0.010000",
"Channel_info_end",
"Channel_info_start",
"Channel : Pb",
"Points : 0",
"Range : 0.000000 - 0.000000",
"Step : 0.010000",
"Channel_info_end",
"",
"Qualitative Result",
"--------------------------------------------------------------------------------",
"Element :  Si, Y , Ca, Ru",
"",
"Peak List",
"--------------------------------------------------------------------------------",
"Channel               Line        keV     Net Int.(cps/uA)",
"--------------------------------------------------------------------------------",
"Na                    SiKa         1.69     0.046",
"                      Y La         1.94     0.566",
"                      CaKa         3.69     0.178",
"                      CaKb         4.01     0.024",
"                      Y Ka        14.90     7.003",
"                      Y Kb        16.71     1.124",
"                      ----        17.13     0.064",
"                      RuKa        19.16     0.146",
"                      ----        19.41     0.079",
"                      ----        19.98     0.043",
"--------------------------------------------------------------------------------",
"",
"Quantitative Result",
"--------------------------------------------------------------------------------",
"Analyte               Result             Std.Dev. Proc.-Calc. Line Intensity(cps/uA)",
"--------------------------------------------------------------------------------",
"====[No. 1 Layer]====< Layer1               >===============================",
"Layer1                   0.000 ug/cm2    -------- Flux       -------- --------",

File: YF5 31506.20100611021501.csv
"Sample    : YF5 31506",
"Operator  : Luís",
"Comment  : cubatao-g-policarbonato",
"Group     : kerr2007ag180cal_lt",
"Date       : 2010-06-11 02:11:00",
"",
"Mesurement Condition",
"------------------------------------------------------------------------------------",
"Instrument : 700HS2   Atmosphere : Vac.   Collimator : 10(mm)   Spin : No",
"------------------------------------------------------------------------------------",
"Analyte               TG kV   uA      FI Acq.(keV)  Anal.(keV)  Time(sec)     DT(%)",
"------------------------------------------------------------------------------------",
"Na                    Rh 50  237-Auto Al  0 - 20    0.8 - 1.2   Live -  178   14",
"",
"<Profile>",
"Channel_info_start",
"Channel : Na",
"Points : 2048",
"Range : 0.000000 - 20.48",
"Step : 0.010000",
"Channel_info_end",
"0",
"0",
"0",
"0",
"0",
"37",
"29",
"39",
"28",
"45",
"45",
"43",
"41",
"38",
"25",
"25",
"24",
"29",
"27",
"23",
"28",
"38",
"48",
"84",
"178",
"238",
"288",
"1414",
"1778",
"1029",
"327",
"73",
"31",
"45",
"34",
"24",
"10",
"17",
"24",
"26",
"25",
"12",
"10",
"13",
"16",
"18",
"17",
"18",
"25",
"25",
"25",
"115",
"590",
"835",
"247",
"70",
"67",
"143",
"100",
"37",
"28",
"28",
"41",
"45",
"47",
"58",
"51",
"45",
"33",
"53",
"52",
"48",
"41",
"48",
"32",
"40",
"43",
"53",
"54",
"34",
"54",
"52",
"34",
"51",
"70",
"67",
"64",
"72",
"71",
"72",
"66",
"84",
"94",
"111",
"82",
"82",
"100",
"99",
"85",
"90",
"75",
"88",
"94",
"89",
"86",
"88",
"82",
"85",
"83",
"87",
"98",
"109",
"113",
"116",
"120",
"131",
"124",
"88",
"85",
"107",
"98",
"120",
"120",
"144",
"135",
"119",
"90",
"105",
"104",
"84",
"86",
"96",
"95",
"90",
"104",
"94",
"94",
"97",
"77",
"106",
"82",
"103",
"83",
"91",
"78",
"90",
"90",
"97",
"94",
"91",
"83",
"86",
"88",
"83",
"81",
"95",
"78",
"88",
"77",
"107",
"86",
"89",
"83",
"75",
"75",
"77",
"92",
"81",
"78",
"91",
"82",
"57",
"75",
"91",
"81",
"66",
"74",
"68",
"72",
"92",
"84",
"92",
"81",
"76",
"81",
"78",
"81",
"98",
"74",
"92",
"95",
"72",
"59",
"60",
"60",
"71",
"64",
"69",
"60",
"82",
"74",
"70",
"83",
"83",
"85",
"74",
"89",
"110",
"186",
"550",
"2155",
"6191",
"10776",
"14068",
"10941",
"6386",
"2380",
"612",
"157",
"86",
"66",
"66",
"80",
"73",
"74",
"66",
"59",
"76",
"61",
"83",
"67",
"91",
"110",
"68",
"100",
"226",
"545",
"1285",
"1859",
"2227",
"1734",
"986",
"588",
"432",
"306",
"162",
"96",
"60",
"41",
"52",
"45",
"51",
"53",
"37",
"43",
"59",
"47",
"49",
"51",
"58",
"61",
"63",
"53",
"62",
"60",
"89",
"71",
"115",
"110",
"143",
"197",
"246",
"284",
"331",
"371",
"306",
"273",
"219",
"181",
"163",
"94",
"87",
"77",
"62",
"86",
"119",
"147",
"175",
"134",
"100",
"72",
"57",
"40",
"24655",
"Channel_info_start",
"Channel : Mg",
"Points : 0",
"Range : 0.000000 - 0.000000",
"Step : 0.010000",
"Channel_info_end",
"Channel_info_start",
"Channel : Al",
"Points : 0",
"Range : 0.000000 - 0.000000",
"Step : 0.010000",
"Channel_info_end",
"Channel_info_start",
"Channel : Si",
"Points : 0",
"Range : 0.000000 - 0.000000",
"Step : 0.010000",
"Channel_info_end",
"Channel_info_start",
"Channel : P ",
"Points : 0",
"Range : 0.000000 - 0.000000",
"Step : 0.010000",
"Channel_info_end",
"Channel_info_start",
"Channel : S ",
"Points : 0",
"Range : 0.000000 - 0.000000",
"Step : 0.010000",
"Channel_info_end",
"Channel_info_start",
"Channel : Cl",
"Points : 0",
"Range : 0.000000 - 0.000000",
"Step : 0.010000",
"Channel_info_end",
"Channel_info_start",
"Channel : K ",
"Points : 0",
"Range : 0.000000 - 0.000000",
"Step : 0.010000",
"Channel_info_end",
"Channel_info_start",
"Channel : Ca",
"Points : 0",
"Range : 0.000000 - 0.000000",
"Step : 0.010000",
"Channel_info_end",
"Channel_info_start",
"Channel : Ti",
"Points : 0",
"Range : 0.000000 - 0.000000",
"Step : 0.010000",
"Channel_info_end",
"Channel_info_start",
"Channel : V ",
"Points : 0",
"Range : 0.000000 - 0.000000",
"Step : 0.010000",
"Channel_info_end",
"Channel_info_start",
"Channel : Cr",
"Points : 0",
"Range : 0.000000 - 0.000000",
"Step : 0.010000",
"Channel_info_end",
"Channel_info_start",
"Channel : Mn",
"Points : 0",
"Range : 0.000000 - 0.000000",
"Step : 0.010000",
"Channel_info_end",
"Channel_info_start",
"Channel : Fe",
"Points : 0",
"Range : 0.000000 - 0.000000",
"Step : 0.010000",
"Channel_info_end",
"Channel_info_start",
"Channel : Cu",
"Points : 0",
"Range : 0.000000 - 0.000000",
"Step : 0.010000",
"Channel_info_end",
"Channel_info_start",
"Channel : Zn",
"Points : 0",
"Range : 0.000000 - 0.000000",
"Step : 0.010000",
"Channel_info_end",
"Channel_info_start",
"Channel : Sr",
"Points : 0",
"Range : 0.000000 - 0.000000",
"Step : 0.010000",
"Channel_info_end",
"Channel_info_start",
"Channel : Pb",
"Points : 0",
"Range : 0.000000 - 0.000000",
"Step : 0.010000",
"Channel_info_end",
"",
"Qualitative Result",
"--------------------------------------------------------------------------------",
"Element :  Si, Y , Ca, Ru",
"",
"Peak List",
"--------------------------------------------------------------------------------",
"Channel               Line        keV     Net Int.(cps/uA)",
"--------------------------------------------------------------------------------",
"Na                    SiKa         1.72     0.050",
"                      Y La         1.94     0.519",
"                      CaKa         3.68     0.295",
"                      CaKb         4.02     0.036",
"                      Y Ka        14.91     6.736",
"                      Y Kb        16.72     1.092",
"                      RuKa        19.17     0.139",
"                      ----        20.00     0.047",
"--------------------------------------------------------------------------------",
"",
"Quantitative Result",
"--------------------------------------------------------------------------------",
"Analyte               Result             Std.Dev. Proc.-Calc. Line Intensity(cps/uA)",
"--------------------------------------------------------------------------------",
"====[No. 1 Layer]====< Layer1               >===============================",
"Layer1                   0.000 ug/cm2    -------- Flux       -------- --------",