Folder: mestrado_ifusp/inputs/edxCalibration/edx_raw/2010-10

Note: README.md
Mestrado realizado no IFUSP 2010-2016 (com break no meio).

mkdir ~/texmf/bibtex/bst/
texhash ~/texmf/
kpsewhich your-bibtex-file.bst

/usr/share/texlive/texmf-dist/bibtex/bst/base/apalike.bst
linha 851

File: sio2-15752.20101117012029.csv
"Sample    : sio2-15752",
"Operator  : Americo",
"Comment  : cal 44,7",
"Group     : kerr2007ag180cal_lt",
"Date       : 2010-11-17 01:16:16",
"",
"Mesurement Condition",
"------------------------------------------------------------------------------------",
"Instrument : 700HS2   Atmosphere : Vac.   Collimator : 10(mm)   Spin : No",
"------------------------------------------------------------------------------------",
"Analyte               TG kV   uA      FI Acq.(keV)  Anal.(keV)  Time(sec)     DT(%)",
"------------------------------------------------------------------------------------",
"Na                    Rh 50  970-Auto Al  0 - 20    0.8 - 1.2   Live -  180   15",
"",
"<Profile>",
"Channel_info_start",
"Channel : Na",
"Points : 2048",
"Range : 0.000000 - 20.48",
"Step : 0.010000",
"Channel_info_end",
"0",
"0",
"0",
"0",
"2",
"54",
"56",
"44",
"37",
"41",
"45",
"50",
"48",
"40",
"32",
"44",
"51",
"43",
"44",
"61",
"42",
"76",
"93",
"169",
"2539",
"6686",
"1907",
"257",
"179",
"177",
"71",
"39",
"26",
"47",
"40",
"29",
"26",
"37",
"47",
"38",
"49",
"62",
"22",
"38",
"40",
"27",
"46",
"55",
"57",
"48",
"84",
"305",
"1415",
"2020",
"701",
"220",
"185",
"331",
"288",
"132",
"69",
"78",
"104",
"140",
"155",
"182",
"172",
"154",
"144",
"133",
"112",
"128",
"115",
"138",
"132",
"141",
"152",
"166",
"163",
"169",
"156",
"186",
"205",
"193",
"211",
"218",
"211",
"239",
"232",
"266",
"273",
"331",
"304",
"276",
"279",
"298",
"255",
"340",
"301",
"289",
"286",
"280",
"300",
"274",
"315",
"294",
"292",
"310",
"303",
"300",
"296",
"307",
"334",
"344",
"374",
"446",
"347",
"321",
"290",
"343",
"302",
"344",
"408",
"494",
"438",
"352",
"310",
"321",
"311",
"318",
"270",
"343",
"311",
"360",
"285",
"361",
"327",
"318",
"295",
"344",
"293",
"307",
"287",
"331",
"301",
"283",
"304",
"332",
"261",
"296",
"298",
"270",
"317",
"329",
"302",
"321",
"305",
"327",
"314",
"299",
"301",
"304",
"317",
"277",
"280",
"280",
"302",
"288",
"283",
"293",
"287",
"261",
"283",
"282",
"276",
"262",
"267",
"267",
"256",
"273",
"292",
"261",
"241",
"276",
"275",
"258",
"274",
"285",
"233",
"233",
"239",
"232",
"250",
"270",
"261",
"247",
"251",
"268",
"243",
"246",
"237",
"276",
"232",
"259",
"224",
"272",
"249",
"237",
"247",
"198",
"219",
"228",
"247",
"211",
"216",
"221",
"216",
"228",
"196",
"208",
"221",
"210",
"232",
"208",
"228",
"191",
"239",
"252",
"194",
"206",
"194",
"205",
"217",
"211",
"191",
"217",
"186",
"205",
"166",
"222",
"174",
"192",
"176",
"194",
"203",
"190",
"192",
"171",
"197",
"198",
"181",
"202",
"195",
"185",
"181",
"221",
"200",
"239",
"199",
"232",
"265",
"217",
"225",
"260",
"270",
"298",
"345",
"400",
"523",
"641",
"844",
"1080",
"1186",
"1399",
"1342",
"1356",
"1158",
"1001",
"682",
"581",
"456",
"304",
"301",
"296",
"343",
"433",
"528",
"539",
"482",
"318",
"229",
"186",
"196",
"94089",
"Channel_info_start",
"Channel : Mg",
"Points : 0",
"Range : 0.000000 - 0.000000",
"Step : 0.010000",
"Channel_info_end",
"Channel_info_start",
"Channel : Al",
"Points : 0",
"Range : 0.000000 - 0.000000",
"Step : 0.010000",
"Channel_info_end",
"Channel_info_start",
"Channel : Si",
"Points : 0",
"Range : 0.000000 - 0.000000",
"Step : 0.010000",
"Channel_info_end",
"Channel_info_start",
"Channel : P ",
"Points : 0",
"Range : 0.000000 - 0.000000",
"Step : 0.010000",
"Channel_info_end",
"Channel_info_start",
"Channel : S ",
"Points : 0",
"Range : 0.000000 - 0.000000",
"Step : 0.010000",
"Channel_info_end",
"Channel_info_start",
"Channel : Cl",
"Points : 0",
"Range : 0.000000 - 0.000000",
"Step : 0.010000",
"Channel_info_end",
"Channel_info_start",
"Channel : K ",
"Points : 0",
"Range : 0.000000 - 0.000000",
"Step : 0.010000",
"Channel_info_end",
"Channel_info_start",
"Channel : Ca",
"Points : 0",
"Range : 0.000000 - 0.000000",
"Step : 0.010000",
"Channel_info_end",
"Channel_info_start",
"Channel : Ti",
"Points : 0",
"Range : 0.000000 - 0.000000",
"Step : 0.010000",
"Channel_info_end",
"Channel_info_start",
"Channel : V ",
"Points : 0",
"Range : 0.000000 - 0.000000",
"Step : 0.010000",
"Channel_info_end",
"Channel_info_start",
"Channel : Cr",
"Points : 0",
"Range : 0.000000 - 0.000000",
"Step : 0.010000",
"Channel_info_end",
"Channel_info_start",
"Channel : Mn",
"Points : 0",
"Range : 0.000000 - 0.000000",
"Step : 0.010000",
"Channel_info_end",
"Channel_info_start",
"Channel : Fe",
"Points : 0",
"Range : 0.000000 - 0.000000",
"Step : 0.010000",
"Channel_info_end",
"Channel_info_start",
"Channel : Cu",
"Points : 0",
"Range : 0.000000 - 0.000000",
"Step : 0.010000",
"Channel_info_end",
"Channel_info_start",
"Channel : Zn",
"Points : 0",
"Range : 0.000000 - 0.000000",
"Step : 0.010000",
"Channel_info_end",
"Channel_info_start",
"Channel : Sr",
"Points : 0",
"Range : 0.000000 - 0.000000",
"Step : 0.010000",
"Channel_info_end",
"Channel_info_start",
"Channel : Pb",
"Points : 0",
"Range : 0.000000 - 0.000000",
"Step : 0.010000",
"Channel_info_end",
"",
"Qualitative Result",
"--------------------------------------------------------------------------------",
"Element :  Si, P , Ca, Ti, Ru",
"",
"Peak List",
"--------------------------------------------------------------------------------",
"Channel               Line        keV     Net Int.(cps/uA)",
"--------------------------------------------------------------------------------",
"Na                    SiKa         1.74     0.428",
"                      P Ka         2.01     0.010",
"                      CaKa         3.70     0.158",
"                      CaKb         4.02     0.020",
"                      TiKa         4.54     0.006",
"                      ----         8.64     0.020",
"                      RuKa        19.19     0.127",
"                      ----        19.52     0.033",
"--------------------------------------------------------------------------------",
"",
"Quantitative Result",
"--------------------------------------------------------------------------------",
"Analyte               Result             Std.Dev. Proc.-Calc. Line Intensity(cps/uA)",
"--------------------------------------------------------------------------------",
"====[No. 1 Layer]====< Layer1               >===============================",
"Layer1                   0.000 ug/cm2    -------- Flux       -------- --------",