Folder: mestrado_ifusp/inputs/edxCalibration/edx_raw/2010-06 (part 10)

File: Nb2O3  15763.20100525234137.csv
"Sample    : Nb2O3  15763",
"Operator  : luisf",
"Comment  : cubatao-g-policarbonato",
"Group     : kerr2007ag180cal_lt",
"Date       : 2010-05-25 23:37:31",
"",
"Mesurement Condition",
"------------------------------------------------------------------------------------",
"Instrument : 700HS2   Atmosphere : Vac.   Collimator : 10(mm)   Spin : No",
"------------------------------------------------------------------------------------",
"Analyte               TG kV   uA      FI Acq.(keV)  Anal.(keV)  Time(sec)     DT(%)",
"------------------------------------------------------------------------------------",
"Na                    Rh 50  237-Auto Al  0 - 20    0.8 - 1.2   Live -  179   16",
"",
"<Profile>",
"Channel_info_start",
"Channel : Na",
"Points : 2048",
"Range : 0.000000 - 20.48",
"Step : 0.010000",
"Channel_info_end",
"0",
"0",
"0",
"0",
"1",
"61",
"92",
"75",
"59",
"37",
"41",
"51",
"52",
"64",
"42",
"63",
"34",
"37",
"30",
"35",
"37",
"46",
"36",
"46",
"49",
"85",
"106",
"217",
"245",
"289",
"1030",
"2965",
"2086",
"1085",
"380",
"143",
"65",
"43",
"67",
"44",
"30",
"27",
"27",
"18",
"16",
"25",
"24",
"33",
"26",
"22",
"17",
"114",
"368",
"509",
"176",
"50",
"55",
"97",
"81",
"34",
"34",
"49",
"30",
"49",
"56",
"59",
"52",
"77",
"52",
"43",
"49",
"52",
"34",
"53",
"46",
"39",
"49",
"50",
"58",
"49",
"72",
"66",
"65",
"74",
"73",
"85",
"54",
"78",
"54",
"74",
"90",
"78",
"93",
"92",
"94",
"94",
"88",
"100",
"107",
"98",
"107",
"88",
"85",
"90",
"96",
"101",
"112",
"92",
"93",
"89",
"99",
"88",
"88",
"117",
"141",
"149",
"97",
"101",
"107",
"92",
"113",
"94",
"135",
"161",
"128",
"110",
"102",
"85",
"116",
"110",
"87",
"103",
"99",
"99",
"103",
"117",
"79",
"102",
"99",
"119",
"100",
"110",
"86",
"93",
"93",
"89",
"98",
"86",
"76",
"86",
"82",
"107",
"87",
"107",
"88",
"87",
"74",
"67",
"89",
"91",
"90",
"82",
"105",
"81",
"85",
"87",
"78",
"92",
"87",
"91",
"80",
"80",
"91",
"60",
"74",
"90",
"81",
"74",
"82",
"81",
"85",
"96",
"69",
"79",
"91",
"94",
"91",
"87",
"77",
"86",
"79",
"91",
"81",
"75",
"90",
"81",
"69",
"84",
"76",
"64",
"69",
"69",
"63",
"67",
"58",
"81",
"55",
"61",
"68",
"63",
"71",
"86",
"76",
"65",
"67",
"93",
"62",
"69",
"80",
"69",
"82",
"73",
"72",
"75",
"99",
"90",
"82",
"81",
"84",
"103",
"107",
"187",
"429",
"1513",
"4163",
"9379",
"13271",
"14163",
"10428",
"5712",
"2046",
"584",
"156",
"102",
"82",
"80",
"74",
"61",
"73",
"68",
"67",
"56",
"75",
"72",
"66",
"55",
"94",
"87",
"90",
"79",
"106",
"140",
"277",
"806",
"1573",
"2268",
"2351",
"1947",
"1187",
"736",
"660",
"624",
"562",
"440",
"387",
"367",
"300",
"231",
"193",
"182",
"126",
"96",
"77",
"69",
"100",
"123",
"157",
"163",
"167",
"109",
"75",
"63",
"47",
"25350",
"Channel_info_start",
"Channel : Mg",
"Points : 0",
"Range : 0.000000 - 0.000000",
"Step : 0.010000",
"Channel_info_end",
"Channel_info_start",
"Channel : Al",
"Points : 0",
"Range : 0.000000 - 0.000000",
"Step : 0.010000",
"Channel_info_end",
"Channel_info_start",
"Channel : Si",
"Points : 0",
"Range : 0.000000 - 0.000000",
"Step : 0.010000",
"Channel_info_end",
"Channel_info_start",
"Channel : P ",
"Points : 0",
"Range : 0.000000 - 0.000000",
"Step : 0.010000",
"Channel_info_end",
"Channel_info_start",
"Channel : S ",
"Points : 0",
"Range : 0.000000 - 0.000000",
"Step : 0.010000",
"Channel_info_end",
"Channel_info_start",
"Channel : Cl",
"Points : 0",
"Range : 0.000000 - 0.000000",
"Step : 0.010000",
"Channel_info_end",
"Channel_info_start",
"Channel : K ",
"Points : 0",
"Range : 0.000000 - 0.000000",
"Step : 0.010000",
"Channel_info_end",
"Channel_info_start",
"Channel : Ca",
"Points : 0",
"Range : 0.000000 - 0.000000",
"Step : 0.010000",
"Channel_info_end",
"Channel_info_start",
"Channel : Ti",
"Points : 0",
"Range : 0.000000 - 0.000000",
"Step : 0.010000",
"Channel_info_end",
"Channel_info_start",
"Channel : V ",
"Points : 0",
"Range : 0.000000 - 0.000000",
"Step : 0.010000",
"Channel_info_end",
"Channel_info_start",
"Channel : Cr",
"Points : 0",
"Range : 0.000000 - 0.000000",
"Step : 0.010000",
"Channel_info_end",
"Channel_info_start",
"Channel : Mn",
"Points : 0",
"Range : 0.000000 - 0.000000",
"Step : 0.010000",
"Channel_info_end",
"Channel_info_start",
"Channel : Fe",
"Points : 0",
"Range : 0.000000 - 0.000000",
"Step : 0.010000",
"Channel_info_end",
"Channel_info_start",
"Channel : Cu",
"Points : 0",
"Range : 0.000000 - 0.000000",
"Step : 0.010000",
"Channel_info_end",
"Channel_info_start",
"Channel : Zn",
"Points : 0",
"Range : 0.000000 - 0.000000",
"Step : 0.010000",
"Channel_info_end",
"Channel_info_start",
"Channel : Sr",
"Points : 0",
"Range : 0.000000 - 0.000000",
"Step : 0.010000",
"Channel_info_end",
"Channel_info_start",
"Channel : Pb",
"Points : 0",
"Range : 0.000000 - 0.000000",
"Step : 0.010000",
"Channel_info_end",
"",
"Qualitative Result",
"--------------------------------------------------------------------------------",
"Element :  Sc, Nb, Ca, Rh",
"",
"Peak List",
"--------------------------------------------------------------------------------",
"Channel               Line        keV     Net Int.(cps/uA)",
"--------------------------------------------------------------------------------",
"Na                    ScLa         0.41     0.017",
"                      ----         0.50     0.013",
"                      ----         1.91     0.051",
"                      NbLa         2.17     0.778",
"                      CaKa         3.70     0.160",
"                      CaKb         4.03     0.020",
"                      NbKa        16.56     7.320",
"                      NbKb        18.57     1.144",
"                      ----        18.98     0.155",
"                      RhKa        20.05     0.056",
"--------------------------------------------------------------------------------",
"",
"Quantitative Result",
"--------------------------------------------------------------------------------",
"Analyte               Result             Std.Dev. Proc.-Calc. Line Intensity(cps/uA)",
"--------------------------------------------------------------------------------",
"====[No. 1 Layer]====< Layer1               >===============================",
"Layer1                   0.000 ug/cm2    -------- Flux       -------- --------",

File: Ni 15757.20100525220555.csv
"Sample    : Ni 15757",
"Operator  : luisf",
"Comment  : cubatao-g-policarbonato",
"Group     : kerr2007ag180cal_lt",
"Date       : 2010-05-25 22:01:53",
"",
"Mesurement Condition",
"------------------------------------------------------------------------------------",
"Instrument : 700HS2   Atmosphere : Vac.   Collimator : 10(mm)   Spin : No",
"------------------------------------------------------------------------------------",
"Analyte               TG kV   uA      FI Acq.(keV)  Anal.(keV)  Time(sec)     DT(%)",
"------------------------------------------------------------------------------------",
"Na                    Rh 50  152-Auto Al  0 - 20    0.8 - 1.2   Live -  179   15",
"",
"<Profile>",
"Channel_info_start",
"Channel : Na",
"Points : 2048",
"Range : 0.000000 - 20.48",
"Step : 0.010000",
"Channel_info_end",
"0",
"0",
"0",
"0",
"0",
"13",
"4",
"8",
"9",
"12",
"5",
"30",
"96",
"105",
"20",
"12",
"7",
"16",
"12",
"10",
"3",
"14",
"10",
"8",
"17",
"11",
"12",
"21",
"37",
"33",
"15",
"10",
"14",
"13",
"7",
"10",
"10",
"9",
"8",
"13",
"9",
"12",
"2",
"10",
"9",
"11",
"5",
"12",
"13",
"11",
"17",
"58",
"289",
"378",
"105",
"42",
"27",
"61",
"41",
"30",
"17",
"18",
"33",
"27",
"28",
"35",
"40",
"34",
"35",
"33",
"16",
"29",
"29",
"33",
"24",
"28",
"42",
"28",
"37",
"41",
"41",
"99",
"99",
"68",
"39",
"51",
"56",
"51",
"63",
"61",
"93",
"91",
"96",
"76",
"76",
"77",
"54",
"76",
"60",
"103",
"85",
"131",
"153",
"246",
"1207",
"8409",
"25206",
"30927",
"13683",
"2466",
"260",
"135",
"96",
"106",
"161",
"309",
"929",
"2973",
"4046",
"2661",
"718",
"171",
"68",
"86",
"92",
"54",
"47",
"72",
"60",
"52",
"39",
"53",
"49",
"73",
"48",
"77",
"51",
"59",
"47",
"59",
"56",
"54",
"63",
"54",
"52",
"87",
"59",
"45",
"52",
"59",
"54",
"54",
"64",
"49",
"54",
"55",
"41",
"61",
"59",
"51",
"58",
"47",
"62",
"53",
"60",
"53",
"46",
"63",
"40",
"49",
"51",
"43",
"45",
"39",
"43",
"53",
"47",
"48",
"35",
"42",
"55",
"37",
"52",
"61",
"52",
"46",
"49",
"54",
"40",
"41",
"43",
"42",
"48",
"61",
"34",
"49",
"48",
"43",
"45",
"62",
"50",
"46",
"41",
"61",
"50",
"47",
"47",
"35",
"34",
"35",
"37",
"49",
"66",
"73",
"74",
"61",
"38",
"43",
"41",
"40",
"36",
"33",
"41",
"49",
"46",
"38",
"35",
"43",
"38",
"29",
"32",
"39",
"39",
"29",
"43",
"40",
"32",
"34",
"35",
"36",
"35",
"32",
"47",
"30",
"26",
"40",
"37",
"34",
"38",
"47",
"26",
"32",
"46",
"37",
"41",
"34",
"38",
"41",
"36",
"53",
"38",
"50",
"37",
"38",
"40",
"63",
"60",
"72",
"90",
"87",
"135",
"165",
"212",
"246",
"213",
"214",
"211",
"160",
"131",
"116",
"90",
"71",
"54",
"56",
"60",
"104",
"123",
"121",
"116",
"78",
"40",
"35",
"38",
"16501",
"Channel_info_start",
"Channel : Mg",
"Points : 0",
"Range : 0.000000 - 0.000000",
"Step : 0.010000",
"Channel_info_end",
"Channel_info_start",
"Channel : Al",
"Points : 0",
"Range : 0.000000 - 0.000000",
"Step : 0.010000",
"Channel_info_end",
"Channel_info_start",
"Channel : Si",
"Points : 0",
"Range : 0.000000 - 0.000000",
"Step : 0.010000",
"Channel_info_end",
"Channel_info_start",
"Channel : P ",
"Points : 0",
"Range : 0.000000 - 0.000000",
"Step : 0.010000",
"Channel_info_end",
"Channel_info_start",
"Channel : S ",
"Points : 0",
"Range : 0.000000 - 0.000000",
"Step : 0.010000",
"Channel_info_end",
"Channel_info_start",
"Channel : Cl",
"Points : 0",
"Range : 0.000000 - 0.000000",
"Step : 0.010000",
"Channel_info_end",
"Channel_info_start",
"Channel : K ",
"Points : 0",
"Range : 0.000000 - 0.000000",
"Step : 0.010000",
"Channel_info_end",
"Channel_info_start",
"Channel : Ca",
"Points : 0",
"Range : 0.000000 - 0.000000",
"Step : 0.010000",
"Channel_info_end",
"Channel_info_start",
"Channel : Ti",
"Points : 0",
"Range : 0.000000 - 0.000000",
"Step : 0.010000",
"Channel_info_end",
"Channel_info_start",
"Channel : V ",
"Points : 0",
"Range : 0.000000 - 0.000000",
"Step : 0.010000",
"Channel_info_end",
"Channel_info_start",
"Channel : Cr",
"Points : 0",
"Range : 0.000000 - 0.000000",
"Step : 0.010000",
"Channel_info_end",
"Channel_info_start",
"Channel : Mn",
"Points : 0",
"Range : 0.000000 - 0.000000",
"Step : 0.010000",
"Channel_info_end",
"Channel_info_start",
"Channel : Fe",
"Points : 0",
"Range : 0.000000 - 0.000000",
"Step : 0.010000",
"Channel_info_end",
"Channel_info_start",
"Channel : Cu",
"Points : 0",
"Range : 0.000000 - 0.000000",
"Step : 0.010000",
"Channel_info_end",
"Channel_info_start",
"Channel : Zn",
"Points : 0",
"Range : 0.000000 - 0.000000",
"Step : 0.010000",
"Channel_info_end",
"Channel_info_start",
"Channel : Sr",
"Points : 0",
"Range : 0.000000 - 0.000000",
"Step : 0.010000",
"Channel_info_end",
"Channel_info_start",
"Channel : Pb",
"Points : 0",
"Range : 0.000000 - 0.000000",
"Step : 0.010000",
"Channel_info_end",
"",
"Qualitative Result",
"--------------------------------------------------------------------------------",
"Element :  Ni, P , Ca",
"",
"Peak List",
"--------------------------------------------------------------------------------",
"Channel               Line        keV     Net Int.(cps/uA)",
"--------------------------------------------------------------------------------",
"Na                    NiLa         0.86     0.045",
"                      P Ka         1.99     0.012",
"                      CaKa         3.68     0.189",
"                      CaKb         4.02     0.024",
"                      NiKaESC      5.76     0.049",
"                      NiKa         7.47    19.250",
"                      NiKb         8.26     2.573",
"                      NiKaSUM     14.88     0.037",
"                      ----        19.13     0.135",
"                      ----        19.43     0.064",
"                      ----        19.96     0.053",
"--------------------------------------------------------------------------------",
"",
"Quantitative Result",
"--------------------------------------------------------------------------------",
"Analyte               Result             Std.Dev. Proc.-Calc. Line Intensity(cps/uA)",
"--------------------------------------------------------------------------------",
"====[No. 1 Layer]====< Layer1               >===============================",
"Layer1                   0.000 ug/cm2    -------- Flux       -------- --------",

File: Pg 15772.20100611041543.csv
"Sample    : Pg 15772",
"Operator  : Luís",
"Comment  : cubatao-g-policarbonato",
"Group     : kerr2007ag180cal_lt",
"Date       : 2010-06-11 04:11:40",
"",
"Mesurement Condition",
"------------------------------------------------------------------------------------",
"Instrument : 700HS2   Atmosphere : Vac.   Collimator : 10(mm)   Spin : No",
"------------------------------------------------------------------------------------",
"Analyte               TG kV   uA      FI Acq.(keV)  Anal.(keV)  Time(sec)     DT(%)",
"------------------------------------------------------------------------------------",
"Na                    Rh 50  152-Auto Al  0 - 20    0.8 - 1.2   Live -  179   15",
"",
"<Profile>",
"Channel_info_start",
"Channel : Na",
"Points : 2048",
"Range : 0.000000 - 20.48",
"Step : 0.010000",
"Channel_info_end",
"0",
"0",
"0",
"0",
"0",
"20",
"24",
"36",
"49",
"124",
"89",
"39",
"44",
"30",
"33",
"30",
"27",
"24",
"14",
"21",
"38",
"31",
"33",
"41",
"43",
"100",
"294",
"233",
"154",
"146",
"196",
"264",
"479",
"2721",
"4152",
"3365",
"1247",
"330",
"443",
"221",
"95",
"63",
"57",
"89",
"162",
"165",
"67",
"46",
"20",
"27",
"27",
"61",
"239",
"350",
"110",
"29",
"31",
"57",
"43",
"31",
"20",
"20",
"23",
"43",
"37",
"36",
"46",
"37",
"40",
"48",
"36",
"42",
"42",
"56",
"40",
"30",
"37",
"35",
"25",
"46",
"41",
"38",
"62",
"68",
"73",
"61",
"60",
"62",
"66",
"78",
"72",
"110",
"90",
"87",
"88",
"106",
"86",
"77",
"95",
"92",
"79",
"77",
"87",
"77",
"81",
"81",
"79",
"93",
"99",
"89",
"90",
"88",
"98",
"112",
"116",
"124",
"123",
"84",
"91",
"88",
"100",
"105",
"115",
"132",
"152",
"119",
"115",
"112",
"129",
"214",
"513",
"787",
"586",
"284",
"124",
"108",
"94",
"105",
"98",
"89",
"103",
"104",
"92",
"105",
"125",
"115",
"176",
"520",
"1900",
"5432",
"9614",
"10273",
"5472",
"1664",
"337",
"121",
"134",
"111",
"92",
"101",
"150",
"192",
"245",
"218",
"127",
"74",
"86",
"86",
"88",
"100",
"114",
"156",
"208",
"311",
"384",
"472",
"544",
"913",
"2338",
"5470",
"6999",
"5639",
"2848",
"1248",
"587",
"450",
"354",
"293",
"178",
"119",
"106",
"86",
"61",
"68",
"66",
"53",
"50",
"52",
"62",
"63",
"64",
"74",
"74",
"91",
"90",
"108",
"81",
"124",
"244",
"577",
"936",
"1034",
"755",
"398",
"267",
"298",
"329",
"332",
"223",
"131",
"74",
"68",
"56",
"73",
"87",
"87",
"57",
"66",
"57",
"57",
"47",
"46",
"39",
"49",
"38",
"48",
"51",
"49",
"34",
"53",
"41",
"43",
"49",
"46",
"41",
"37",
"41",
"49",
"55",
"37",
"34",
"40",
"48",
"43",
"46",
"46",
"37",
"46",
"47",
"60",
"56",
"52",
"60",
"48",
"66",
"47",
"51",
"75",
"111",
"105",
"143",
"198",
"208",
"255",
"214",
"218",
"205",
"195",
"132",
"104",
"90",
"72",
"67",
"78",
"120",
"198",
"256",
"261",
"202",
"118",
"52",
"40",
"46",
"20391",
"Channel_info_start",
"Channel : Mg",
"Points : 0",
"Range : 0.000000 - 0.000000",
"Step : 0.010000",
"Channel_info_end",
"Channel_info_start",
"Channel : Al",
"Points : 0",
"Range : 0.000000 - 0.000000",
"Step : 0.010000",
"Channel_info_end",
"Channel_info_start",
"Channel : Si",
"Points : 0",
"Range : 0.000000 - 0.000000",
"Step : 0.010000",
"Channel_info_end",
"Channel_info_start",
"Channel : P ",
"Points : 0",
"Range : 0.000000 - 0.000000",
"Step : 0.010000",
"Channel_info_end",
"Channel_info_start",
"Channel : S ",
"Points : 0",
"Range : 0.000000 - 0.000000",
"Step : 0.010000",
"Channel_info_end",
"Channel_info_start",
"Channel : Cl",
"Points : 0",
"Range : 0.000000 - 0.000000",
"Step : 0.010000",
"Channel_info_end",
"Channel_info_start",
"Channel : K ",
"Points : 0",
"Range : 0.000000 - 0.000000",
"Step : 0.010000",
"Channel_info_end",
"Channel_info_start",
"Channel : Ca",
"Points : 0",
"Range : 0.000000 - 0.000000",
"Step : 0.010000",
"Channel_info_end",
"Channel_info_start",
"Channel : Ti",
"Points : 0",
"Range : 0.000000 - 0.000000",
"Step : 0.010000",
"Channel_info_end",
"Channel_info_start",
"Channel : V ",
"Points : 0",
"Range : 0.000000 - 0.000000",
"Step : 0.010000",
"Channel_info_end",
"Channel_info_start",
"Channel : Cr",
"Points : 0",
"Range : 0.000000 - 0.000000",
"Step : 0.010000",
"Channel_info_end",
"Channel_info_start",
"Channel : Mn",
"Points : 0",
"Range : 0.000000 - 0.000000",
"Step : 0.010000",
"Channel_info_end",
"Channel_info_start",
"Channel : Fe",
"Points : 0",
"Range : 0.000000 - 0.000000",
"Step : 0.010000",
"Channel_info_end",
"Channel_info_start",
"Channel : Cu",
"Points : 0",
"Range : 0.000000 - 0.000000",
"Step : 0.010000",
"Channel_info_end",
"Channel_info_start",
"Channel : Zn",
"Points : 0",
"Range : 0.000000 - 0.000000",
"Step : 0.010000",
"Channel_info_end",
"Channel_info_start",
"Channel : Sr",
"Points : 0",
"Range : 0.000000 - 0.000000",
"Step : 0.010000",
"Channel_info_end",
"Channel_info_start",
"Channel : Pb",
"Points : 0",
"Range : 0.000000 - 0.000000",
"Step : 0.010000",
"Channel_info_end",
"",
"Qualitative Result",
"--------------------------------------------------------------------------------",
"Element :  Pb, S , Cl, Ir, Ru",
"",
"Peak List",
"--------------------------------------------------------------------------------",
"Channel               Line        keV     Net Int.(cps/uA)",
"--------------------------------------------------------------------------------",
"Na                    ----         0.66     0.026",
"                      ----         1.84     0.095",
"                      PbMa         2.37     1.299",
"                      S Ka         2.37     0.588",
"                      ClKa         2.67     0.158",
"                      ----         3.11     0.061",
"                      ----         3.68     0.166",
"                      PbLL         9.17     0.289",
"                      IrLa         9.17     0.126",
"                      PbLa        10.52     7.216",
"                      PbLn        11.29     0.105",
"                      PbLb4       12.26     0.158",
"                      PbLb1       12.60     4.925",
"                      IrLg3       12.99     0.099",
"                      PbLg1       14.75     0.724",
"                      PbLg2       15.13     0.193",
"                      ----        19.12     0.145",
"                      RuKa        19.34     0.108",
"                      ----        19.96     0.109",
"--------------------------------------------------------------------------------",
"",
"Quantitative Result",
"--------------------------------------------------------------------------------",
"Analyte               Result             Std.Dev. Proc.-Calc. Line Intensity(cps/uA)",
"--------------------------------------------------------------------------------",
"====[No. 1 Layer]====< Layer1               >===============================",
"Layer1                   0.000 ug/cm2    -------- Flux       -------- --------",